unix_timestamp,acc_x,acc_y,acc_z,gyro_x,gyro_y,gyro_z
1788186328.1171649,-0.0149,0.00805,-1.00129,0.00218,0.00617,0.00366
1788186328.2501283,-0.01524,0.00548,-1.00172,0.00223,0.00469,0.00375
1788186328.277605,-0.0153,0.00596,-1.00193,0.00414,0.00415,0.00363
1788186328.3973641,-0.01467,0.00572,-1.00025,0.00415,0.00538,0.00255
1788186328.5256367,-0.01567,0.00622,-1.0032,0.002,0.00569,0.00258
1788186328.6492488,-0.01432,0.00775,-1.00302,0.00298,0.00631,0.00036
1788186328.7331824,-0.01323,0.00505,-1.00084,0.00428,0.00599,0.00475
1788186328.9353256,-0.01654,0.00588,-1.00103,0.00189,0.00451,0.00578
1788186328.940882,-0.01588,0.00828,-1.0007,0.00452,0.00276,0.00082
1788186329.0587363,-0.01622,0.00647,-1.00267,0.00829,0.00751,0.00543
1788186329.1427836,-0.01561,0.00736,-1.00211,0.00278,0.0044,0.00305
1788186329.2745605,-0.01572,0.00667,-1.00065,0.0032,0.00372,0.00532
1788186329.343694,-0.01341,0.00655,-1.00327,0.00388,0.00315,0.00329
1788186329.468398,-0.01437,0.00579,-1.00153,0.00414,0.00474,0.0043
1788186329.5513217,-0.01441,0.00595,-1.00095,0.00419,0.0054,0.00295
1788186329.7291079,-0.01508,0.00685,-1.00172,0.00187,0.00401,0.00259
1788186329.7291079,-0.01577,0.00509,-1.0018,0.00692,0.00581,0.00312
1788186329.8426778,-0.01443,0.00622,-1.00287,0.0058,0.00805,0.00229
1788186329.9640326,-0.01427,0.00589,-1.00117,0.00574,0.00204,0.00318
1788186330.0762665,-0.01632,0.00625,-1.00111,0.00289,0.00454,0.00512
1788186330.1271334,-0.01531,0.00546,-0.99838,0.0026,0.00676,0.00401
1788186330.2596803,-0.01486,0.00649,-1.00263,0.00568,0.00307,0.00336
1788186330.3628228,-0.01716,0.00585,-1.00197,0.00452,0.00596,0.00406
1788186330.5031962,-0.01411,0.0064,-1.00198,0.00403,0.00559,0.00567
1788186330.5674703,-0.01565,0.00643,-1.00067,0.00397,0.00527,0.00196
1788186330.7311463,-0.01556,0.00601,-1.00335,0.00397,0.00564,0.00285
1788186330.7311463,-0.01418,0.0058,-1.00116,0.00302,0.00583,0.00383
1788186330.8595338,-0.01652,0.00708,-0.99991,0.00383,0.00607,0.00106
1788186330.9828744,-0.01521,0.0053,-1.0001,0.00318,0.00438,0.00526
1788186331.095967,-0.01658,0.0053,-1.00285,0.0035,0.00442,0.00277
1788186331.1440582,-0.01486,0.00639,-1.00218,0.00278,0.00767,0.00482
1788186331.246442,-0.01681,0.00622,-1.00107,0.00255,0.00679,0.0036
1788186331.3540087,0.17211,0.01039,-0.98788,0.00447,0.03646,-0.0149
1788186331.4762385,0.22954,-0.01323,-0.99942,0.01034,0.00516,0.05159
1788186331.5793571,-0.00367,-0.0061,-0.98768,-0.01366,0.0153,-0.0409
1788186331.698504,-0.15927,-0.01399,-0.96898,0.03844,0.0082,-0.00513
1788186331.7334623,-0.107,-0.008,-0.98736,0.00655,0.01852,-0.00506
1788186331.857632,0.02703,-0.07274,-1.00854,0.01906,-0.0149,0.00473
1788186331.9938295,0.0332,-0.02224,-1.02547,-0.01969,-0.00823,0.01243
1788186332.0958543,-0.01908,0.00976,-0.98884,0.02322,0.03676,-0.0056
1788186332.1971302,-0.08791,0.02881,-1.00245,0.01867,0.00539,0.02786
1788186332.3172019,-0.03233,0.00558,-1.00581,-0.01038,0.00986,0.02083
1788186332.4056816,0.0262,-0.03259,-0.99649,-0.00642,0.01733,-0.00353
1788186332.523411,0.01252,-0.01746,-1.01097,0.03562,-0.00664,0.0224
1788186332.6186798,-0.0428,0.02454,-1.01708,-0.02501,-0.00651,0.02624
1788186332.7316606,-0.04394,-0.009,-1.00438,-0.03502,0.02394,0.01285
1788186332.7471948,0.00147,-0.01113,-0.99123,0.06422,-0.00178,0.00313
1788186332.8476567,0.01242,0.00651,-0.98718,0.03851,-0.00698,0.00701
1788186332.970335,-0.00313,0.03337,-1.00672,0.03013,0.01087,-0.00661
1788186333.0882893,-0.0101,0.04074,-1.00702,-0.00172,0.01129,-0.01387
1788186333.2330687,-0.01995,-0.02685,-0.98938,-0.0481,-0.0139,0.0204
1788186333.2970455,-0.08142,-0.04474,-0.99738,0.01946,-0.01566,0.02503
1788186333.442961,-0.2481,0.06492,-1.00702,-0.00195,-0.0023,-0.16052
1788186333.5557837,-0.10835,0.0292,-1.0034,-0.0009,0.00948,-0.00051
1788186333.5726023,0.10098,0.01371,-0.99683,-0.00274,0.01661,0.01768
1788186333.7528436,0.0057,0.01055,-1.00016,0.0026,0.01808,0.00682
1788186333.8524318,-0.00145,0.00771,-1.00023,0.00191,0.00637,0.00827
1788186334.0594032,-0.00291,0.00763,-1.00111,0.00618,0.00817,0.00285
1788186334.1696954,-0.0082,0.00819,-1.00228,0.00297,0.00542,0.00313
1788186334.2622123,-0.01168,0.00746,-1.00006,0.00461,0.00329,0.00178
1788186334.385505,-0.00698,0.0073,-1.00059,0.00589,0.0047,0.00435
1788186334.3954618,-0.0067,0.0076,-1.00307,0.00561,0.00702,0.00182
1788186334.5737286,-0.00891,0.00623,-1.00176,0.00366,0.00506,0.00148
1788186334.5737286,-0.00736,0.00608,-1.00253,0.00286,0.00292,0.00462
1788186334.700421,-0.0077,0.00575,-1.00356,0.00077,0.00689,0.00321
1788186334.8172665,-0.00101,0.00341,-1.00143,0.00505,0.01178,0.00471
1788186334.8943932,0.23172,-0.00082,-0.99625,0.01723,0.0243,0.06677
1788186335.0377822,0.18077,0.01606,-1.0093,-0.00472,0.00383,-0.03942
1788186335.1553235,-0.08489,-0.01233,-0.99664,0.0072,-0.00148,0.00791
1788186335.2457314,-0.15185,-0.02367,-0.98818,0.00244,0.00168,-0.00945
1788186335.357023,-0.02387,-0.03599,-0.99307,0.00126,0.02044,0.00704
1788186335.4565012,0.07137,-0.02053,-0.98794,0.01861,0.00705,-0.03507
1788186335.5577402,0.03258,0.02107,-1.01428,0.06429,-0.02992,-0.00867
1788186335.6137218,-0.0142,0.04461,-0.96037,-0.00164,0.00811,-0.06372
1788186335.7797732,-0.05253,-0.01954,-1.00288,0.02657,-0.00883,0.00778
1788186335.8849454,-0.00517,0.03038,-1.00116,0.04649,-0.01516,-0.03816
1788186336.0026405,0.02686,0.03285,-0.98387,-0.01279,-0.00172,-0.02375
1788186336.0162442,0.00024,-0.00209,-1.01348,0.00259,-0.00294,0.01291
1788186336.1385267,-0.03713,0.0252,-1.00941,0.01133,0.00149,-0.03187
1788186336.2359548,-0.02531,0.03963,-0.93132,0.00556,-0.00482,-0.01168
1788186336.3257518,0.0112,0.05547,-0.99746,-0.05619,0.01473,-0.00385
1788186336.453846,-0.01078,-0.00926,-0.99753,-0.02174,0.01594,0.03615
1788186336.5615797,-0.01919,0.0029,-1.00557,-0.01499,0.02641,0.02289
1788186336.677852,-0.00064,0.04504,-1.02759,-0.00917,-0.02332,-0.05441
1788186336.7712476,-0.04102,-0.02253,-0.99306,0.03284,-0.01169,0.03232
1788186336.9253373,-0.0299,0.05826,-0.98177,-0.00332,0.01278,-0.02765
1788186336.936546,-0.11784,0.02901,-0.98796,0.01967,0.0229,0.00227
1788186337.0545115,-0.12105,0.01851,-0.98629,0.00405,0.01398,-0.11568
1788186337.1373026,-0.02084,0.03332,-1.00568,0.01158,-0.00508,0.00362
1788186337.2530022,-0.00342,0.00418,-1.00229,0.00562,0.00624,-0.00151
1788186337.3221002,-0.0044,0.01044,-1.00107,0.00109,0.00487,0.00277
1788186337.532753,-0.00549,0.00746,-1.00101,0.00098,0.00644,0.00372
1788186337.5466764,-0.00743,0.00618,-1.0013,0.00125,0.00805,0.00445
1788186337.6652536,-0.01084,0.00514,-1.00026,0.00592,0.00564,0.0051
1788186337.756078,-0.0144,0.00701,-1.00114,0.00135,0.00698,0.00718
1788186337.936042,-0.01336,0.0067,-1.00097,0.00454,0.00562,0.00252
1788186337.9517214,-0.01222,0.00612,-1.00282,0.0047,0.00499,0.00398
1788186338.0670538,-0.01501,0.00621,-1.00377,0.00772,0.00409,0.00182
1788186338.14751,-0.01383,0.00695,-1.00174,0.00321,0.00466,0.0014
1788186338.273807,-0.01204,0.00991,-1.00079,0.00446,0.00628,0.00233
1788186338.3856993,-0.0138,0.01171,-1.00133,0.00135,0.00717,-0.00308
1788186338.497616,0.03993,0.01243,-1.00084,-0.00046,0.01205,-0.01139
1788186338.5457146,0.2442,0.00978,-1.02914,0.03775,0.00034,-0.03975
1788186338.7238529,0.12144,0.00072,-0.97444,0.01132,-0.01138,-0.02812
1788186338.8145819,-0.09609,0.01359,-1.00123,0.04181,-0.00552,-0.01231
1788186338.9471874,-0.13074,0.01776,-1.00725,-0.00761,0.01225,-0.00564
1788186339.0436993,-0.01546,-0.05241,-0.98729,-0.02606,0.04238,-0.00858
1788186339.1510544,0.07979,-0.01569,-0.98552,0.0193,0.03902,-0.05566
1788186339.2518349,-0.05894,0.02687,-0.97728,0.01028,0.01466,-0.00686
1788186339.3580558,-0.04153,0.03029,-1.01534,-0.00127,0.02272,-0.00106
1788186339.3628905,0.02326,0.00648,-1.00417,0.01983,0.02419,-0.05371
1788186339.474058,0.04649,0.03152,-0.9871,0.02345,0.0301,-0.03839
1788186339.572624,-0.0031,0.03696,-1.00196,0.0076,-0.01782,-0.01768
1788186339.6730037,-0.03493,0.02641,-1.01356,-0.02063,0.01256,0.00907
1788186339.776854,-0.0246,0.00147,-0.98435,0.02378,-0.00203,-0.03273
1788186339.9852083,0.00952,0.0062,-0.99628,0.00655,-0.00223,0.01214
1788186340.0173056,0.00432,-0.00734,-1.00708,-0.04293,0.01345,0.01713
1788186340.1141524,-0.00581,-6e-05,-1.00227,-0.00768,0.02219,0.01548
1788186340.210218,-0.01906,0.02438,-0.9676,0.02912,0.01635,-0.01074
1788186340.3926344,0.00752,0.0433,-0.99468,0.00879,0.02243,-0.01971
1788186340.4084938,-0.21234,0.01145,-1.00373,0.002,0.00603,-0.07017
1788186340.5371213,-0.06504,-0.0004,-1.00833,-0.0062,0.03403,-0.0039
1788186340.6154876,-0.01384,0.02439,-1.00131,0.00411,0.0099,-0.00011
1788186340.7279677,-0.00659,0.00011,-1.00053,0.00357,0.00552,0.00727
1788186340.8146162,-0.0044,0.00912,-0.99998,0.0035,0.00362,0.00299
1788186341.0222907,-0.00421,0.01087,-1.00013,0.00222,0.00957,0.00167
1788186341.0226905,-0.00913,0.00283,-1.00247,0.00405,0.00207,0.00621
1788186341.1401825,-0.01052,0.00619,-1.00046,0.00457,0.00664,0.00633
1788186341.238262,-0.00805,0.00661,-1.0004,0.00408,0.00403,0.00478
1788186341.4017344,-0.00854,0.00765,-1.00158,0.00614,0.00476,0.00061
1788186341.449917,0.03582,0.03257,-1.03788,-0.04684,-0.00192,1.50895
1788186341.5797353,-0.00619,-0.08002,-1.00933,6e-05,0.00182,1.42654
1788186341.6340334,0.00617,-0.0265,-0.99477,0.01009,0.00322,1.49463
1788186341.751946,0.02002,0.01955,-1.01189,0.02517,-0.02426,1.49905
1788186341.8283527,0.01566,0.0124,-1.01186,0.056,-0.05912,1.53375
1788186341.932065,0.00623,0.01138,-0.97241,0.01662,-0.00253,1.51115
1788186342.0571482,0.01288,-0.00794,-0.99685,-0.01428,-0.01373,1.54778
1788186342.1746829,0.01168,-0.01596,-1.01384,-0.02637,-0.01056,1.57276
1788186342.251747,0.00104,-0.02,-1.00809,-0.02053,-0.01396,1.6169
1788186342.364017,0.01942,0.02993,-1.00564,-0.00687,-0.0057,1.46287
1788186342.4530485,-0.00121,0.02759,-1.00123,0.00168,0.01612,0.40192
1788186342.5706847,-0.00299,0.07358,-1.00021,0.00037,0.00173,0.02303
1788186342.6862752,-0.01569,0.00503,-1.00055,0.00391,0.00828,0.01346
1788186342.834128,-0.0151,0.01477,-1.00176,0.00321,0.00679,0.00324
1788186342.8486557,-0.0152,0.01311,-1.00111,0.00525,0.00674,-0.0015
1788186342.973934,-0.01559,0.00648,-0.99862,0.00079,0.00424,0.00329
1788186343.0772326,0.04201,0.01083,-0.99854,0.00403,0.01697,-0.00818
1788186343.2039905,0.23062,-0.00346,-1.0191,-0.03622,-0.03678,0.01078
1788186343.2746043,0.10927,0.00643,-1.00187,0.01136,-0.03678,-0.0082
1788186343.419294,-0.12638,0.01994,-0.98066,0.01167,0.00797,0.01907
1788186343.4956677,-0.17346,0.00505,-0.99804,0.00869,0.00557,0.02742
1788186343.634601,-0.01046,-0.01437,-0.98716,0.01896,0.03882,0.00755
1788186343.6959283,0.09244,-0.01361,-1.00607,-0.03793,-0.01026,0.01964
1788186343.841597,0.0074,0.01461,-0.99288,-0.00674,0.02627,0.02199
1788186343.883359,-0.09777,-0.00254,-1.02246,-0.01765,0.02794,0.00905
1788186344.049765,0.00264,-0.02519,-1.03469,-0.01604,-0.0054,0.0656
1788186344.0922196,0.0056,-0.03441,-1.0035,-0.02781,0.03155,-0.00353
1788186344.1768656,-0.02661,-0.00877,-0.9965,0.01936,0.02773,-0.01296
1788186344.257607,-0.0376,0.01729,-1.00063,0.01891,0.00882,-0.02484
1788186344.3706067,0.00228,0.01937,-0.99019,-0.03387,0.0632,-0.01391
1788186344.4998665,-0.0073,-0.00529,-0.98806,-0.00847,0.00792,-0.00242
1788186344.6131475,0.03055,0.03057,-0.99457,0.00701,0.00724,-0.02291
1788186344.7166283,-0.00455,0.05303,-0.99572,-0.00245,-0.0212,-0.0105
1788186344.820875,-0.0402,-0.00994,-1.01717,0.01173,-0.00562,0.02823
1788186344.9178703,-0.0073,0.03817,-1.00746,0.00742,0.00677,-0.0046
1788186345.1165352,0.0081,0.03491,-1.00465,-0.01581,-0.00757,-0.00578
1788186345.228395,-0.20008,-0.03142,-0.99896,-0.03707,-0.01763,0.01072
1788186345.230398,-0.23145,0.01703,-1.00091,0.01045,0.00258,0.03577
1788186345.3234088,-0.00925,0.00596,-1.00238,0.00292,0.01028,0.0029
1788186345.4557552,-0.01727,0.01197,-1.00139,0.00504,0.00368,0.00406
1788186345.5321367,-0.01867,0.00791,-1.00091,0.00709,0.00195,0.00241
1788186345.7279546,-0.01764,0.00604,-1.00172,0.00663,0.00508,0.00111
1788186345.7334077,-0.01685,0.00996,-1.00088,0.00326,0.00603,0.00226
1788186345.8348253,-0.01674,0.00851,-1.00075,0.00542,0.00775,0.00452
1788186346.0503666,-0.01405,0.00855,-1.00171,0.00278,0.0075,0.00373
1788186346.0503666,-0.01506,0.00726,-1.00125,0.00355,0.00696,0.00113
1788186346.2487533,-0.01611,0.00643,-1.00035,0.00455,0.00624,0.00601
1788186346.2487533,-0.01417,0.00649,-0.99996,0.00422,0.00555,0.00365
1788186346.3529155,-0.01444,0.00362,-1.00033,0.00289,0.00526,0.00493
1788186346.4664161,-0.01643,0.00098,-1.00263,0.00448,0.00699,0.00734
1788186346.5562441,-0.01285,0.00873,-1.00098,0.00363,0.00841,0.00166
1788186346.6674318,0.13662,0.02268,-0.99562,-0.00606,0.03573,-0.04411
1788186346.7470524,0.25548,0.01924,-0.97271,-0.00183,0.01342,0.02627
1788186346.856378,0.04197,-0.01791,-1.00992,-0.00156,-0.02241,-0.01944
1788186346.9674659,-0.16312,0.01941,-1.00694,-0.01085,0.02928,0.01691
1788186347.0912204,-0.12712,-0.00622,-1.00215,-0.03115,0.02094,0.04059
1788186347.1745987,0.01723,-0.00095,-1.01375,-0.0094,0.00429,0.0062
1788186347.278847,0.07585,0.02644,-1.02424,0.05168,-0.01258,-0.06295
1788186347.3759077,-0.02123,0.02312,-0.99549,-0.02538,0.0365,-0.00681
1788186347.4523427,-0.07773,-0.01407,-1.01854,-0.04406,-0.01524,0.04543
1788186347.5912552,-0.03938,-0.00796,-0.95863,0.02711,0.00663,0.01136
1788186347.7244186,0.03253,0.00805,-0.98909,0.00781,-0.00082,-0.04081
1788186347.7794473,0.02214,0.00454,-0.99657,-0.01646,0.02763,0.01914
1788186347.8613846,-0.01577,-0.0059,-0.98696,-0.00105,0.04288,0.01724
1788186347.957817,-0.03557,-0.02295,-0.99472,0.02146,-0.01589,0.01
1788186348.0645957,0.01681,0.01422,-0.99844,0.0324,0.00028,-0.02176
1788186348.1608315,0.01105,0.01115,-0.99553,0.04057,-0.02554,-0.00879
1788186348.2748377,0.01097,0.02035,-0.98997,-0.00787,-0.00155,-0.04582
1788186348.4079866,-0.02532,0.01322,-0.97714,0.02527,0.01932,-0.0173
1788186348.5088124,-0.00283,0.03513,-0.99878,0.0336,-0.00449,-0.02064
1788186348.7067502,-0.02206,0.02996,-0.99404,-0.02735,0.01593,-0.01672
1788186348.7067502,-0.25201,0.05373,-0.98248,0.00902,-0.00462,-0.00341
1788186348.8114197,-0.09787,-0.02031,-0.98519,0.02724,0.02021,0.04329
1788186348.8905911,-0.02076,-0.00531,-1.00256,0.00718,0.00748,0.00157
1788186349.1231,-0.01818,-0.00092,-0.99979,0.00567,0.00563,0.00958
1788186349.1231,-0.01066,-0.00347,-1.00096,0.00278,0.00507,0.01209
1788186349.2074125,-0.007,-0.00447,-1.00056,0.00419,0.00674,0.01001
1788186349.4153728,-0.01167,-0.00649,-1.00057,0.00656,0.00417,0.01105
1788186349.4308782,-0.01499,-0.00681,-1.00014,0.00399,0.0062,0.01396
1788186349.5424612,-0.01192,-0.00781,-1.00113,0.00247,0.0071,0.01224
1788186349.6363266,-0.01357,-0.007,-1.00171,0.00106,0.0062,0.01534
1788186349.7362313,-0.01419,-0.00644,-0.9997,0.00535,0.00366,0.01254
1788186349.8292747,-0.01074,-0.00177,-1.00174,0.00105,0.00594,0.00892
1788186349.8930442,-0.01172,0.00015,-1.00242,0.00485,0.00692,0.01145
1788186350.017565,-0.01011,0.00562,-1.00102,0.00408,0.00576,0.01018
1788186350.129962,0.00797,0.01689,-1.00111,0.00159,0.00876,-0.01155
1788186350.2591808,0.2434,0.01272,-0.99813,0.01148,0.02318,-0.0086
1788186350.3399758,0.16834,0.0124,-0.99581,0.02044,0.01641,-0.02329
1788186350.437343,-0.07316,0.0048,-0.98376,0.02698,-0.01376,-0.00319
1788186350.564148,-0.1542,0.00969,-1.00357,-0.00098,-0.03228,-0.0319
1788186350.655896,-0.01706,0.01352,-0.9966,-0.00723,0.02302,-0.03142
1788186350.764086,0.06354,0.01271,-1.02282,-0.02809,0.02056,0.03758
1788186350.8547614,0.04596,0.06576,-0.99389,0.00368,0.05686,-0.03747
1788186350.9794135,-0.06022,-0.01132,-0.98978,0.02795,0.0416,0.01418
1788186351.034992,-0.05083,0.00966,-1.01386,0.00998,0.03964,-0.02127
1788186351.187679,0.01221,0.02591,-1.00839,0.047,0.01933,-0.06579
1788186351.2926316,0.04809,0.0306,-0.97571,0.03672,0.0322,0.01084
1788186351.350013,0.01266,0.03187,-0.99451,0.00892,0.01642,-0.03374
1788186351.4728782,-0.01355,0.04219,-0.99991,0.00461,0.00822,-0.02498
1788186351.6124027,-0.01786,0.01208,-0.99105,-0.03034,-0.01045,-0.01096
1788186351.6259964,0.01824,-0.0036,-1.01058,-0.02,0.00405,0.0159
1788186351.7231498,0.00498,0.00394,-1.00704,0.00321,-0.01105,-0.01438
1788186351.8358378,0.00858,0.04709,-0.98658,0.00148,0.03743,-0.0285
1788186352.0804646,-0.00933,0.03777,-0.98434,0.00686,0.00797,0.00981
1788186352.2092028,-0.13848,0.03153,-1.01379,-0.00426,-0.01508,-0.03131
1788186352.2832458,-0.14003,-0.08751,-1.00447,0.01116,-0.00538,0.12175
1788186352.3977802,-0.00081,0.00753,-1.0006,0.00098,0.00542,-0.00941
1788186352.476921,-0.01392,0.02563,-1.00151,0.00569,0.0059,0.00096
1788186352.5909824,-0.0132,0.00798,-1.00148,0.00377,0.00508,0.00466
1788186352.6950824,-0.00898,0.00234,-1.00312,0.00309,0.00483,0.00436
1788186352.8064864,-0.00875,0.00802,-1.00239,0.0014,0.00495,0.00508
1788186352.9165683,-0.01123,0.0126,-1.00039,0.00412,0.00603,0.00293
1788186353.0224094,-0.0076,0.00754,-1.00077,0.00126,0.00283,0.00228
1788186353.109353,-0.01072,0.00722,-1.00244,0.00626,0.00471,0.00269
1788186353.2965388,-0.13982,-0.39992,-1.06051,-0.03399,-0.00078,1.39732
1788186353.3126597,0.02341,0.06098,-1.00036,0.03132,0.02277,1.18503
1788186353.4340353,0.01528,0.00684,-0.98022,-0.01524,0.00575,1.4786
1788186353.5124946,-0.00618,-0.00824,-0.98449,-0.00475,-0.01208,1.49436
1788186353.624544,0.00364,-0.01011,-0.97271,0.01565,0.02644,1.49649
1788186353.8329678,0.02218,0.00597,-1.02991,-0.02238,-0.00327,1.54782
1788186353.9100702,0.02655,0.0114,-1.01388,-0.03589,-0.04023,1.54945
1788186354.0525687,-0.00268,-0.00266,-0.96721,-0.01367,0.00786,1.55725
1788186354.0759711,0.0127,-0.00107,-0.9761,-0.0279,-0.02558,1.60222
1788186354.2436345,0.01503,-0.01417,-1.01573,0.00841,-0.00339,1.57382
1788186354.329886,0.00333,-0.00907,-1.02522,0.02235,-0.02343,1.58288
1788186354.4472835,0.00779,0.01277,-1.01002,0.0493,-0.03364,1.51239
1788186354.4630013,0.00126,0.02756,-0.99475,-0.0218,0.01365,1.54664
1788186354.6536057,0.01773,0.0061,-0.97132,-0.04149,0.02044,1.58762
1788186354.67385,0.01569,-1e-05,-1.01558,-0.00761,-0.0084,1.57971
1788186354.8565629,0.01675,-0.00542,-1.02668,-0.02807,-0.00147,1.58751
1788186354.8722777,0.02534,0.01275,-1.03147,0.00059,-0.03153,1.56213
1788186355.0166755,0.00991,0.02415,-0.98957,-0.01249,-0.02078,1.54472
1788186355.1467505,0.06937,0.24603,-0.98506,0.00846,0.00934,0.73495
1788186355.2568264,0.02249,0.03441,-0.99781,0.00119,-0.00239,0.31203
1788186355.3657103,0.09287,-0.00615,-0.98389,0.02576,0.03059,0.03433
1788186355.4681087,0.27133,0.02259,-0.97777,0.02281,0.02809,0.05093
1788186355.555531,0.05201,-0.01974,-1.05143,-0.05147,-0.05348,0.04056
1788186355.686639,-0.12803,0.00509,-0.97011,-0.01721,-0.01551,-0.03814
1788186355.6940982,-0.1269,-0.00107,-0.99966,-0.00109,0.00853,-0.02525
1788186355.8826594,0.02908,0.02703,-0.99628,-0.02245,0.01649,-0.05256
1788186355.9163857,0.09423,0.03013,-1.00386,0.0396,-0.02434,-0.03814
1788186356.0135448,-0.01375,0.02079,-0.9983,0.01101,-0.00341,-0.01142
1788186356.117579,-0.06914,0.05699,-1.00849,0.04995,-0.00928,-0.05462
1788186356.2147677,-0.05495,0.02443,-0.98076,0.00302,0.03394,0.00271
1788186356.3125074,0.02711,0.0097,-0.98252,0.0045,0.02546,-0.08398
1788186356.5140193,0.01326,0.03678,-0.9965,0.01987,0.04529,-0.00197
1788186356.5291584,-0.02075,0.06204,-1.01522,0.03842,0.01184,-0.05341
1788186356.6427188,-0.05316,0.01689,-1.01173,0.00098,0.00199,0.02557
1788186356.75495,-0.02327,-0.02609,-1.01131,-0.05056,0.02129,0.00363
1788186356.8689435,-0.01844,-0.03696,-1.01662,-0.02314,0.03087,0.04142
1788186356.9328525,0.01399,0.01946,-0.98426,0.00886,0.03327,0.01098
1788186357.078639,-0.01382,0.01438,-1.01756,-0.02878,-0.02241,-0.00233
1788186357.2067387,-0.02851,-0.00131,-0.99749,0.00274,0.01096,0.01787
1788186357.3681438,-0.04255,-0.07789,-1.0248,-0.00984,-0.02095,0.06088
1788186357.3839598,-0.00676,0.01954,-0.98132,0.02731,0.01733,-0.01673
1788186357.4917326,-0.25241,-0.00926,-1.00764,-0.01586,0.01028,0.06057
1788186357.6042006,-0.03882,0.00057,-1.00432,-0.00318,0.00267,0.00821
1788186357.7113552,-0.02774,0.02023,-1.00189,0.00359,0.00732,0.00132
1788186357.812341,-0.01797,0.01658,-1.00145,0.00449,0.00676,0.00407
1788186357.9241223,-0.00911,0.02446,-1.001,0.00599,0.00375,-0.00827
1788186357.9373176,-0.01199,0.01578,-1.00042,0.00125,0.00507,-0.00285
1788186358.0376716,-0.01602,0.00361,-0.9988,0.00545,0.00584,0.00562
1788186358.209627,-0.01723,-0.00341,-1.00015,0.00541,0.00413,0.01474
1788186358.2366774,-0.01443,0.00179,-1.0024,0.00409,0.00438,0.0121
1788186358.4258308,-0.00048,0.0417,-0.98439,-0.00615,0.02966,-0.06464
1788186358.5521505,-0.00873,-0.07016,-1.00756,-0.00328,-0.00729,-1.42199
1788186358.5521505,0.05723,0.08623,-1.00016,0.03582,0.0182,-1.49364
1788186358.8401458,0.02894,0.01924,-1.0163,0.02503,0.03796,-1.4905
1788186358.9311826,-0.00242,-0.01822,-0.98927,-0.0069,0.00774,-1.49512
1788186358.9575331,-0.00388,-0.0157,-0.98535,-0.06294,0.02817,-1.52679
1788186359.054958,0.01781,0.01056,-0.99878,0.02603,-0.01567,-1.59631
1788186359.2498806,0.0347,0.03055,-0.99712,0.05239,0.00555,-1.58087
1788186359.256274,0.02458,0.03333,-1.00219,0.02496,0.01496,-1.58628
1788186359.3740237,-0.05707,-0.19016,-0.9926,-0.04872,0.04675,-1.15403
1788186359.4577014,-0.02198,-0.03561,-0.99845,0.00241,0.00591,-0.30211
1788186359.5662506,-0.02174,-0.01685,-1.00181,0.00922,0.00399,0.03379
1788186359.762209,-0.00919,0.00726,-1.00019,0.00411,0.00643,0.0184
1788186359.762209,-0.00366,0.01064,-1.00204,0.00342,0.00376,-0.0025
1788186359.8744469,-0.01171,0.00894,-1.00103,0.0022,0.00518,-0.00369
1788186359.972775,0.06917,0.01188,-0.99619,0.00658,0.01625,-0.00385
1788186360.069112,0.25378,0.03121,-0.99784,0.00903,0.04377,0.00385
1788186360.1877193,0.07951,0.0046,-0.99458,0.04135,-0.04981,-0.03859
1788186360.2764075,-0.13471,0.03505,-1.0006,-0.01486,-0.01466,-0.00053
1788186360.384537,-0.15299,-0.04101,-1.0159,-0.0296,-0.02147,0.02669
1788186360.492834,0.02429,-0.02039,-1.01054,-0.03959,0.01123,0.02036
1788186360.6319468,0.1016,0.03871,-1.00043,-0.00722,0.00236,-0.01625
1788186360.693434,0.00258,-0.00061,-0.99258,0.01389,0.00511,-0.01234
1788186360.8401377,-0.07622,0.05289,-1.01273,0.05961,0.00256,-0.05076
1788186360.8954427,-0.06328,0.03637,-0.99639,0.04167,0.04042,-0.01435
1788186361.0506635,0.01406,0.00404,-1.00585,0.00757,0.01754,0.00045
1788186361.0967722,0.0328,-0.00906,-1.00772,0.03367,0.02347,0.03015
1788186361.2168343,-0.01555,0.00358,-1.01762,-0.02521,0.02362,0.01877
1788186361.3153267,-0.04635,0.01242,-0.96848,0.00281,0.01956,0.0521
1788186361.47581,-0.01492,0.03362,-1.00395,0.0043,0.02003,-0.01501
1788186361.4920204,0.0077,-0.01319,-1.01038,-0.01559,0.01679,0.05019
1788186361.5883965,0.01067,0.0023,-0.97996,0.02326,0.02155,0.00847
1788186361.7113867,-0.00717,0.05268,-1.00322,-0.00631,0.00304,-0.02245
1788186361.8386338,-0.00863,0.03438,-1.00673,-0.00263,0.02471,-0.02821
1788186361.9024878,-0.01766,-0.02755,-1.01227,-0.02492,0.02134,-0.00042
1788186362.0138054,0.02246,0.02511,-0.99342,0.02176,-0.01463,0.05666
1788186362.109289,-0.2463,-0.0272,-0.98498,-0.01157,-0.02215,0.02961
1788186362.3105285,-0.0893,0.01218,-0.99829,0.00262,-0.00126,-0.00975
1788186362.3105285,-0.01992,0.00478,-0.99877,0.00054,0.00399,0.00453
1788186362.4390543,-0.0157,0.00673,-1.00172,0.00278,0.00965,0.00776
1788186362.5195663,-0.01355,0.00734,-1.00131,0.0034,0.00621,0.00581
1788186362.6583843,-0.01223,0.00564,-1.00162,0.00256,0.00257,0.00169
1788186362.7369146,-0.01306,0.00704,-1.00027,0.00366,0.00511,0.00242
1788186362.8386497,-0.01404,0.00607,-1.00334,0.00379,0.00362,0.00549
1788186362.9348624,-0.00894,0.00497,-1.00042,0.00188,0.00367,0.00404
1788186363.0548227,-0.01087,0.00441,-1.00083,0.00325,0.00514,0.00568
1788186363.2505333,-0.01149,0.00656,-1.00063,0.00546,0.00561,0.00584
1788186363.3489141,-0.01055,0.00703,-1.00145,0.00455,0.00631,0.00143
1788186363.4461281,-0.01128,0.00678,-1.00027,0.00213,0.00605,0.00414
1788186363.540687,-0.01166,0.0043,-1.00172,-0.00047,0.00589,0.00665
1788186363.6665437,0.13885,0.01376,-0.9892,0.00806,0.04623,-0.01032
1788186363.7472067,0.2723,0.05115,-1.00958,0.01997,-0.00301,-0.03864
1788186363.8906193,0.0482,0.00044,-0.97634,0.04,-0.0322,-0.01014
1788186363.9644005,-0.1692,0.00465,-1.02117,-0.07365,-0.00926,0.03522
1788186364.0958717,-0.1083,0.00445,-0.98872,-0.00519,0.04332,0.0124
1788186364.2082298,0.04797,0.0354,-1.00702,0.04522,0.0187,0.01572
1788186364.3122034,0.08825,0.04564,-0.99606,0.07857,0.00173,-0.02401
1788186364.3742285,-0.00449,0.01457,-1.01334,-0.0273,-0.02067,-0.0084
1788186364.4993646,-0.0706,-0.01037,-0.97394,0.0167,-0.00154,0.04666
1788186364.5752902,-0.03119,0.03583,-0.99844,0.00244,0.01648,-0.02866
1788186364.6580522,0.0388,0.03834,-1.02641,0.01407,-0.02167,-0.02277
1788186364.7768877,0.00935,0.01204,-0.99934,0.02648,-0.02118,0.0017
1788186364.9498813,-0.00549,0.01639,-0.99666,0.02379,-0.02588,0.03035
1788186365.047069,-0.04249,-0.01408,-0.96624,-0.02666,0.02291,-0.01245
1788186365.047069,-0.01842,-0.00322,-0.99437,-0.00929,0.01752,0.00133
1788186365.176455,-0.00621,-0.02877,-0.98694,0.00636,0.026,0.03657
1788186365.2757814,0.00454,0.00645,-0.99162,-0.00472,-0.01232,-0.00567
1788186365.3877778,-0.01441,0.04205,-0.99607,0.02386,-0.0248,-0.01942
1788186365.4910045,-0.00457,-0.00557,-0.98,-0.01403,0.01138,0.0205
1788186365.6987815,-0.02483,0.05449,-0.99029,0.00781,-0.0066,0.00096
1788186365.6987815,-0.25847,0.02353,-0.98772,0.01566,0.01768,0.01636
1788186365.810946,-0.07542,-0.01528,-1.00159,0.0044,0.02588,-0.00333
1788186365.9237447,-0.03102,-0.00249,-1.00169,0.00295,0.00933,0.00516
1788186365.9740598,-0.02434,0.00281,-1.00151,0.00392,0.00091,0.00916
1788186366.0744803,-0.0146,0.01567,-0.99931,0.00659,0.00891,0.00219
1788186366.2126746,-0.01489,0.00813,-1.00009,0.00107,0.00681,0.00418
1788186366.324134,-0.01494,0.00841,-0.99987,0.00215,0.00393,0.00103
1788186366.4211295,-0.01721,0.0091,-1.00361,0.00388,0.0054,0.00588
1788186366.5467806,-0.01631,0.0116,-1.00239,0.00492,0.00716,0.00189
1788186366.6372201,-0.0184,0.0093,-1.00179,0.00391,0.00446,0.00363
1788186366.8252847,-0.01753,0.00863,-1.00162,0.00318,0.00879,0.0038
1788186366.8252847,-0.01704,0.00678,-1.0016,0.00387,0.00455,0.00274
1788186366.9541984,-0.01694,0.00775,-1.00127,0.00247,0.00448,0.00513
1788186367.0158265,-0.01751,0.0112,-0.99978,0.00204,0.00928,0.00916
1788186367.1325738,-0.01429,0.02296,-1.00116,0.00311,0.00511,-0.00702
1788186367.2443721,0.22114,0.00022,-0.99511,0.01903,0.05069,-0.0225
1788186367.3551319,0.22865,0.00884,-0.99548,0.01941,-0.01473,-0.00064
1788186367.4489188,-0.05097,-0.0051,-0.9693,0.0054,-0.03306,-0.03496
1788186367.553791,-0.19874,0.00737,-1.0123,0.0204,-0.00964,-0.00346
1788186367.6507337,-0.07095,0.004,-0.99587,-0.00711,0.00732,-0.0531
1788186367.7756872,0.07342,0.0071,-1.00156,0.03757,0.00678,-0.02068
1788186367.8522546,0.04771,0.01704,-0.97925,0.01113,0.03142,0.02684
1788186367.970926,-0.02613,0.06659,-1.00075,0.03128,-0.01825,-0.02651
1788186368.055419,-0.08622,-0.03801,-1.00783,-0.00014,0.04093,0.0073
1788186368.1722512,-0.0148,-0.00401,-1.0022,-0.01049,0.03347,0.04804
1788186368.2695906,0.044,0.00387,-0.99299,0.02446,0.02937,0.02139
1788186368.3981128,0.01013,0.01835,-0.96461,0.04605,0.03357,0.0213
1788186368.4626327,-0.0138,0.05856,-1.00229,0.00097,0.02924,-0.02753
1788186368.5848422,-0.02606,0.04274,-0.99908,0.00418,0.02701,0.01172
1788186368.6548576,0.01623,0.03417,-1.00836,0.02881,-0.0094,-0.03269
1788186368.735548,0.01964,0.02032,-1.01699,0.02837,-0.01157,0.01377
1788186368.8489802,-0.00038,0.0279,-1.0002,-0.02094,0.007,0.00686
1788186368.961638,-0.04196,-0.01621,-1.0167,-0.06047,-0.01349,0.02735
1788186369.0743237,-0.01723,0.01349,-0.99092,0.00165,0.02438,-0.00595
1788186369.2796173,-0.00059,0.03219,-0.98474,0.01383,0.04622,0.02381
1788186369.40884,-0.2875,-0.00027,-0.99691,0.01635,0.01819,-0.07638
1788186369.4882412,-0.03247,0.09133,-0.9991,-0.00359,0.01107,0.05974
1788186369.6013129,0.10199,0.00889,-1.0044,0.00566,0.0104,-0.00386
1788186369.6942043,0.01075,0.01929,-1.00079,0.00218,0.00904,0.00268
1788186369.8098288,-0.00306,0.02837,-1.00257,0.00741,0.00655,-0.00117
1788186369.9916992,-0.00415,0.02708,-0.99965,0.00448,0.00588,-0.00448
1788186369.9916992,-0.00567,0.02625,-1.00209,0.00334,0.00256,-0.00027
1788186370.0918636,-0.0038,0.02465,-1.00064,0.00286,0.00544,-0.00207
1788186370.3074038,0.00548,-0.05473,-1.01156,-0.02783,0.02295,-1.20675
1788186370.437039,0.0431,0.04487,-1.00843,0.03902,0.02448,-1.51202
1788186370.5082006,0.01059,-0.00842,-1.04036,-0.01337,-0.04273,-1.47603
1788186370.714357,0.01019,0.01794,-1.0301,0.00269,-0.0048,-1.54538
1788186370.7199142,0.01671,-0.01201,-1.00796,0.02225,0.00909,-1.53313
1788186370.8356757,-0.00268,-0.02122,-0.99242,0.01284,0.02737,-1.52195
1788186370.9283488,0.02453,0.05179,-0.97587,-0.02857,0.06574,-1.60149
1788186371.0407033,0.02786,0.01888,-1.00557,-0.03845,0.01294,-1.52854
1788186371.137099,0.00714,-0.0049,-1.02137,0.00535,-0.00308,-1.54609
1788186371.2351325,-0.10007,-0.23444,-1.01235,-0.01574,0.01232,-0.85931
1788186371.3310034,-0.03163,-0.02102,-1.00583,-0.00283,0.01752,-0.16253
1788186371.5238323,-0.00993,0.03025,-1.0001,0.00184,0.00265,-0.00208
1788186371.539974,-0.01265,0.01395,-1.00206,0.00205,0.00558,-0.00306
1788186371.6686778,-0.01536,0.01472,-1.0012,0.00252,0.00363,0.00446
1788186371.7478876,-0.01494,0.01361,-1.00204,0.002,0.00555,0.00598
1788186371.8600686,-0.01272,0.01526,-1.00099,0.00395,0.00492,0.00065
1788186371.9491673,0.16977,0.01248,-0.99664,-0.01025,0.03661,-0.00679
1788186372.0237017,0.23698,-0.04851,-0.98659,-0.00288,0.01316,0.06544
1788186372.150019,0.0097,0.01481,-1.02516,0.01504,-0.04152,-0.02963
1788186372.2966344,-0.1898,-0.00362,-0.9593,0.01058,0.00134,0.03412
1788186372.35174,-0.08738,-0.0029,-0.99061,-0.00448,-0.00066,0.00744
1788186372.5043886,0.06812,-0.02949,-0.99396,-0.0121,0.01969,-0.00855
1788186372.5604296,0.08838,0.02045,-0.99637,-0.00816,0.0101,-0.01325
1788186372.637581,-0.04885,-0.01109,-0.9915,-0.01647,0.01411,0.03963
1788186372.7687528,-0.08967,0.00861,-0.98395,0.00459,0.0092,0.04406
1788186372.9154215,-0.02574,0.02996,-0.99649,0.03655,0.00726,-0.01308
1788186372.9286304,0.00294,-0.05732,-1.00514,0.01469,0.04635,0.04852
1788186373.0335195,0.02733,-0.00208,-1.0295,-0.03464,-0.01712,-0.04508
1788186373.1412945,-0.01373,0.05008,-1.04606,0.01218,-0.02281,-0.01698
1788186373.2372005,-0.06338,-0.00662,-1.00658,-0.03417,-0.01649,0.04362
1788186373.3660247,-0.00988,-0.00641,-1.02331,-0.031,-0.0171,0.01177
1788186373.489103,0.00506,0.00398,-1.02033,-0.00026,-0.00673,-0.01727
1788186373.5697155,-0.00811,0.04424,-1.03153,0.05254,-0.04061,-0.00053
1788186373.709641,-0.02545,0.03333,-0.98238,0.03803,0.01463,0.01701
1788186373.7823098,-0.01218,0.02263,-0.99572,-0.0045,-0.00522,0.00435
1788186373.9103155,0.01572,0.01215,-1.01901,0.01805,-0.0035,0.01443
1788186373.988465,-0.00349,0.01848,-0.99563,0.01555,0.01473,-0.00694
1788186374.0321357,-0.26643,-0.00954,-1.00073,-0.01459,0.00843,0.00289
1788186374.1445017,-0.11066,-0.03546,-1.0022,0.00532,-0.00164,0.07606
1788186374.2756581,-0.01813,0.01178,-1.00445,0.00321,0.00819,-0.00692
1788186374.3998241,-0.00542,0.02371,-0.99892,0.00153,0.00809,-0.00392
1788186374.609119,-0.00608,0.01568,-1.00142,0.00131,0.00507,0.00047
1788186374.7223754,-0.01502,0.01468,-1.00445,0.00201,0.00631,0.00603
1788186374.8064435,-0.01204,0.01512,-1.00045,0.00658,0.00591,0.00344
1788186374.8569517,-0.01081,0.01576,-1.00102,0.00542,0.00704,0.00334
1788186375.0170257,-0.01415,0.01507,-1.00122,0.00541,0.00684,0.00288
1788186375.2182295,0.00322,-0.05418,-0.98824,0.01967,0.01513,1.31578
1788186375.3470807,0.01928,-0.01035,-0.98015,0.00934,0.01951,1.47844
1788186375.3763447,0.01263,-0.00158,-1.00086,0.01488,-0.02394,1.53758
1788186375.4971821,0.02628,0.01613,-1.03748,0.04347,-0.05513,1.52459
1788186375.629714,0.0239,0.03106,-0.99486,0.01391,-0.01543,1.50557
1788186375.8380852,0.01568,0.00201,-0.9859,0.01076,-0.01218,1.58851
1788186375.9482756,0.02595,0.01362,-1.02353,-0.00057,-0.03479,1.61278
1788186376.031679,0.01816,-0.01097,-1.01568,-0.0043,0.00214,1.55138
1788186376.1446385,0.01219,0.03515,-0.98094,0.02249,0.0006,1.51334
1788186376.2348354,0.03092,-0.0068,-0.98166,-0.05857,-0.01463,1.59956
1788186376.363587,0.01743,-0.03235,-0.98001,0.00522,0.01474,1.57223
1788186376.4428718,0.02675,0.00011,-1.00789,0.01849,-0.03233,1.58495
1788186376.563863,0.01737,0.02031,-1.02475,0.01622,-0.02532,1.54528
1788186376.6444936,0.0155,0.00573,-1.01988,-0.00491,0.00021,1.52607
1788186376.7733219,0.02576,-0.00166,-0.99199,-0.01302,-0.02653,1.58052
1788186376.8556023,0.00685,-0.01635,-0.97922,0.01964,0.00462,1.59631
1788186376.964738,0.02176,-0.00779,-0.97473,-0.00437,-0.01174,1.60384
1788186377.032487,0.02265,0.08764,-0.9982,0.01042,0.0114,0.50716
1788186377.1634958,0.04651,-0.02921,-0.99692,-0.00521,0.01579,0.03482
1788186377.258846,0.27064,0.0167,-0.99584,0.03003,0.00573,0.05638
1788186377.3063047,0.11861,-0.00591,-1.00996,-0.02166,-0.01606,-0.01479
1788186377.4033384,-0.15093,0.00943,-0.95538,-0.03705,-0.01224,0.00847
1788186377.5171602,-0.15016,-0.01614,-1.01194,0.0008,0.00156,-0.03908
1788186377.6223707,0.03586,-0.00769,-1.00416,-0.02626,0.0008,-0.0599
1788186377.734207,0.10796,0.01114,-0.99837,0.00998,-0.0116,0.00245
1788186377.8237333,-0.02349,0.00378,-0.99945,-0.00379,0.00929,0.00149
1788186377.9286304,-0.07371,0.02842,-1.00164,0.01943,-0.01464,-0.00427
1788186378.0313413,-0.05101,0.00404,-1.01158,0.03877,-0.0074,-0.03433
1788186378.241088,0.01289,0.01871,-0.98455,-0.03371,0.04167,-0.02644
1788186378.2465131,0.03514,0.01141,-0.98746,-0.01248,0.02848,-0.00221
1788186378.3419428,-0.00354,0.03907,-0.99344,0.00754,0.03327,-0.04041
1788186378.4540305,-0.05425,0.06226,-1.00313,0.03389,0.02221,-0.02551
1788186378.5841653,-0.01203,-0.00504,-0.99073,-0.0021,0.02728,0.00911
1788186378.6743388,0.01326,-0.02811,-1.00334,-0.01697,0.01181,0.01362
1788186378.787366,0.00595,-0.0087,-0.97883,-0.10129,0.03254,-0.01484
1788186378.9162502,0.00404,0.00558,-0.98294,-0.04224,-0.0142,0.02354
1788186378.9320266,-0.01134,0.03302,-1.01329,0.02212,0.00321,-0.02363
1788186379.0322638,0.00254,0.04265,-1.00303,-0.00725,0.00633,0.00945
1788186379.1406744,-0.00602,-0.00678,-1.02507,0.01001,-0.04455,0.03922
1788186379.3177736,-0.27718,0.00707,-0.99671,-0.00145,0.00715,-0.03136
1788186379.4329193,-0.23253,-0.02171,-1.00356,-0.00061,0.00915,0.01134
1788186379.4329193,0.07172,0.01199,-0.98152,0.02762,0.04352,0.02347
1788186379.5334995,0.01541,-0.04226,-0.99999,0.00058,0.0162,0.03101
1788186379.7175064,0.00041,0.01533,-0.9997,0.00366,0.00495,-0.00607
1788186379.7353482,-0.00782,0.00279,-1.0025,0.00256,0.00057,0.00758
1788186379.9260714,-0.00961,0.00903,-1.00128,0.0045,0.00553,-0.0
1788186380.037591,-0.01148,0.00226,-1.00221,0.00426,0.00396,0.0073
1788186380.0556445,-0.00812,0.00658,-1.00172,0.00442,0.00757,0.00384
1788186380.156604,-0.00418,0.00588,-1.00158,0.00458,0.00455,0.00511
1788186380.248443,0.04708,0.00482,-0.9931,0.02252,-0.06696,1.47535
1788186380.343531,0.00187,-0.04418,-0.99795,0.01278,-0.02265,1.28688
1788186380.5390055,0.0176,-0.00694,-0.99604,-0.05357,-0.03626,1.43726
1788186380.7528222,0.02896,-0.01585,-1.01577,-0.03177,-0.0198,1.5498
1788186380.753449,0.02175,-0.00976,-1.0051,0.00376,-0.01954,1.55399
1788186380.9568512,0.02175,-0.00976,-1.0051,0.00376,-0.01954,1.55399
1788186380.9568512,0.00731,0.02536,-0.98445,0.03593,-0.015,1.54197
1788186381.0461342,0.0084,-0.00087,-1.00624,-0.00837,-0.01282,1.55507
1788186381.075283,-0.01301,-0.05507,-1.01929,0.00746,0.00898,1.61047
1788186381.1649914,0.01557,0.0693,-1.00589,-0.0062,7e-05,0.54019
1788186381.266675,0.00733,0.05764,-1.0001,0.00231,0.00757,0.12184
1788186381.3752637,0.06967,0.01468,-0.99998,0.00133,0.01627,0.0066
1788186381.4940562,0.28149,0.02631,-1.02134,-0.01378,-0.00015,0.01419
1788186381.574365,0.09709,-0.01435,-1.00202,-0.03675,-0.00555,0.01012
1788186381.7027524,-0.17342,-0.01782,-0.96994,-0.01658,-0.02074,0.00547
1788186381.809246,-0.1242,0.02087,-0.98396,-0.00238,0.0052,-0.00653
1788186381.8923857,0.03762,0.009,-0.96812,-0.01713,0.03885,0.00068
1788186382.0179675,0.10913,0.00341,-0.97472,0.00576,0.03183,-0.01752
1788186382.122203,0.01801,0.00495,-1.00566,0.03589,-0.02264,-0.00392
1788186382.176625,-0.10803,-0.0068,-1.00413,-0.02225,0.04111,0.01516
1788186382.3305278,-0.04785,0.03293,-0.99791,-0.01019,0.04298,-0.0217
1788186382.4346797,0.04239,-0.00807,-1.00038,-0.01448,0.04595,-0.00693
1788186382.5400903,0.05045,0.04539,-1.00938,0.0254,0.03745,-0.02984
1788186382.5937777,-0.03137,0.03272,-1.01269,0.00701,0.01373,0.02216
1788186382.7242491,-0.04962,-0.00336,-0.99055,-0.03012,0.02262,0.00528
1788186382.8789382,-0.00525,-0.01112,-1.02643,-0.03562,0.03205,-0.04122
1788186382.8866885,0.0314,-0.00381,-1.0235,-0.0097,0.0012,-0.0354
1788186382.9821148,0.00439,-0.01895,-1.00887,0.02042,-0.05551,0.01243
1788186383.1091316,-0.03927,-0.00799,-0.96394,0.00196,-0.00663,0.04294
1788186383.205945,-0.00972,0.02681,-0.98196,0.03596,-0.01265,-0.06394
1788186383.3188813,0.00184,0.01565,-1.00269,0.00857,-0.01435,-0.02892
1788186383.4140048,0.01179,0.03396,-0.9896,-0.03934,0.01828,-0.01172
1788186383.6122315,-0.25534,0.04338,-1.00281,-0.01841,-0.01729,-0.00418
1788186383.6292896,-0.0713,0.02417,-1.00057,0.00337,0.00683,-0.0175
1788186383.7553985,-0.01533,0.01408,-0.99977,0.00391,0.00562,-0.00097
1788186383.818913,-0.01243,0.00808,-1.0022,0.00355,0.00625,0.00512
1788186383.9414418,-0.00841,0.00884,-1.00243,0.00425,0.00602,0.00487
1788186384.0242696,-0.00507,0.00977,-1.00162,0.00459,0.00141,0.0027
1788186384.2307403,-0.0055,0.01041,-1.00062,0.00345,0.00753,0.00248
1788186384.2307403,-0.00631,0.01039,-0.99988,0.00496,0.0075,0.00412
1788186384.3479562,-0.00658,0.01062,-1.00015,0.00516,0.00287,0.00263
1788186384.4551187,-0.00565,0.01018,-1.00024,0.00504,0.00461,0.00639
1788186384.5611484,-0.03402,-0.1428,-1.01363,0.00138,-0.01508,1.58486
1788186384.641763,0.0033,-0.03923,-0.98096,-0.03238,0.0215,1.24935
1788186384.7710495,0.00888,-0.00714,-1.016,-0.00856,-0.01438,1.46382
1788186384.8511243,0.0035,0.00534,-1.02352,-0.01445,-0.05296,1.43608
1788186384.962103,0.02741,0.00812,-1.00449,-0.03703,0.04456,1.5231
1788186385.0515926,0.02053,-0.04297,-0.99615,-0.00564,-0.01187,1.59837
1788186385.1695127,0.0243,0.00936,-0.99096,0.04533,-0.00115,1.5377
1788186385.3719857,0.02173,0.02138,-0.96064,0.01505,0.02937,1.54211
1788186385.4758794,0.00771,-0.00899,-1.01698,0.00287,-0.00392,1.54621
1788186385.5872328,0.03378,0.07472,-1.00899,0.00768,0.01429,0.51223
1788186385.6761365,0.0066,0.04629,-1.00112,0.00372,1e-05,0.16405
1788186385.7776034,-0.01576,-0.01628,-1.00051,0.00451,0.00657,0.00679
1788186385.8736012,-0.01907,0.00226,-1.0001,0.00179,0.005,0.00474
1788186385.985664,-0.01606,0.00569,-1.00259,0.00326,0.00254,0.00517
1788186386.0729284,-0.00733,0.00655,-1.00139,0.00065,0.00561,0.00273
1788186386.1768334,0.01505,0.00638,-0.99801,0.00342,0.00897,0.0016
1788186386.2925518,0.25962,0.00686,-1.00928,-0.01722,0.03446,0.01467
1788186386.3856215,0.14314,-0.0454,-1.00959,0.00842,-0.0509,-0.02921
1788186386.481546,-0.119,-0.00083,-0.99304,-0.00609,0.04068,0.0039
1788186386.55237,-0.16453,-0.01558,-1.01611,-0.06089,-0.00145,-0.02729
1788186386.6899247,-0.00723,-0.02333,-0.99437,0.0008,0.00976,-0.02496
1788186386.8370762,0.08778,-0.03084,-1.02986,-0.02987,-0.00355,0.02031
1788186386.8576548,0.0283,-0.01247,-0.9995,0.00736,-0.01062,-0.03574
1788186386.9757776,-0.05748,0.00409,-1.00139,-0.0213,0.01405,-0.01586
1788186387.074731,0.01647,0.01325,-1.01389,0.02249,-0.00855,-0.00988
1788186387.2536476,0.04604,0.02262,-1.01434,0.03103,-0.03507,-0.01869
1788186387.3015573,-0.03607,-0.02197,-1.01853,-0.06209,0.03341,0.03402
1788186387.3753364,-0.03553,0.00656,-0.97914,0.01525,0.02188,-0.02344
1788186387.4756246,-0.01952,0.04075,-0.94608,0.08275,0.04391,0.00082
1788186387.5846593,0.02264,-0.01019,-0.99559,-0.00639,-0.00767,0.01741
1788186387.687668,0.0344,0.02287,-1.00738,0.01076,0.00204,-0.0142
1788186387.7989714,-0.02621,-0.00143,-1.03218,-0.00497,-0.00964,0.01674
1788186387.927387,-0.02839,0.0365,-0.9942,0.02313,-0.01471,-0.06408
1788186388.0238667,-0.00769,-0.00098,-1.00656,0.02164,-0.01311,-0.01201
1788186388.0873682,0.01366,0.00352,-1.01372,-0.00932,-0.02691,-0.01864
1788186388.327965,-0.25585,-0.03755,-1.00822,-0.01907,-0.0138,-0.04074
1788186388.327965,-0.23159,-0.06192,-1.00364,-0.00461,0.00604,0.11899
1788186388.4409852,0.04769,0.02436,-0.99965,0.01037,0.02155,-0.04929
1788186388.521664,0.03462,0.02998,-1.00448,0.01083,-0.01143,0.01242
1788186388.65061,0.00907,0.00971,-1.00193,0.00362,0.00581,-0.00889
1788186388.8479075,-0.00842,0.00103,-1.0008,0.00479,0.00426,0.0024
1788186388.9443445,-0.01434,0.00182,-0.9999,0.00593,0.00574,0.00121
1788186389.0559936,-0.01323,0.00323,-1.00057,0.00641,0.00746,0.00418
1788186389.1480002,-0.00751,0.00365,-1.00144,0.00574,0.00336,-0.00035
1788186389.2539034,-0.00116,-0.01956,-1.00255,-0.01502,0.0214,-1.56853
1788186389.3487616,0.02171,0.00242,-1.01873,0.00837,-0.01013,-1.34178
1788186389.4604104,0.02032,-0.03798,-1.02795,-0.06202,0.00382,-1.45839
1788186389.6692965,0.00611,-0.01023,-1.01204,-0.05959,0.02393,-1.48207
1788186389.7599585,0.01027,-0.00377,-0.99806,0.02199,0.04589,-1.53101
1788186389.8908608,0.04877,0.01882,-1.01416,0.00103,-0.03099,-1.57151
1788186389.9744906,0.05321,0.01311,-1.01059,-0.01065,-0.00311,-1.58521
1788186390.0875247,0.01734,-0.00159,-1.00333,-0.05992,-0.00173,-1.57164
1788186390.1752117,0.02247,-0.03839,-1.0155,0.03124,0.02611,-1.54553
1788186390.2878094,-0.00376,-0.02257,-1.00923,0.01566,0.02279,-0.48508
1788186390.4932966,-0.02419,-0.03335,-1.00144,-0.00145,0.01097,-0.0577
1788186390.5978935,-0.00427,-0.00314,-1.00044,0.00121,0.00381,0.01194
1788186390.6954484,-0.00418,0.01339,-1.00051,0.0042,0.00419,0.00311
1788186390.79449,-0.0053,0.01267,-0.99978,0.0038,0.00623,-0.00081
1788186390.8944123,0.04462,0.0074,-0.99868,0.00058,0.01414,0.00632
1788186390.9962866,0.28301,0.01635,-1.02184,0.00224,0.01659,-0.02025
1788186391.0943842,0.11657,-0.01852,-1.01162,-0.06123,-0.03817,0.02077
1788186391.216786,-0.1278,0.05607,-0.99488,-0.02971,-0.01811,0.00457
1788186391.307654,-0.12996,0.01192,-0.99921,-0.00727,0.00372,0.03881
1788186391.3625746,0.03831,0.03942,-0.99301,0.01159,0.02552,-0.01128
1788186391.494829,0.06703,-0.04208,-1.06075,-0.02407,0.00578,0.08047
1788186391.599575,0.01275,0.0466,-0.99348,0.01699,-0.00223,-0.07878
1788186391.745404,-0.08463,-0.01443,-1.01644,-0.02337,-0.03179,0.06868
1788186391.806752,-0.04849,0.01953,-1.01226,0.01467,-0.01536,-0.01299
1788186391.8697948,0.02385,0.02358,-1.00332,-0.00481,0.00726,0.01208
1788186391.9750288,0.03636,0.02153,-1.0179,0.03803,0.00022,-0.04112
1788186392.1016176,-0.06715,0.02381,-1.00479,0.01937,0.00734,0.01893
1788186392.1822438,-0.03043,0.04616,-1.00602,-0.0045,0.04334,-0.03631
1788186392.298144,-0.02582,-0.01466,-1.06188,-0.06057,-0.01478,0.05141
1788186392.4183526,0.00771,0.03448,-0.98291,0.04878,-0.01034,-0.02977
1788186392.5147123,-0.01616,0.0427,-1.01203,0.03922,-0.02405,-0.0251
1788186392.6279511,-0.02884,0.02327,-1.00948,0.02231,-0.0232,-0.01001
1788186392.8361838,-0.01446,0.0342,-0.99618,0.01589,0.00549,0.00792
1788186392.8361838,-0.25418,-0.00629,-0.99417,0.02797,-0.01277,0.02228
1788186392.952668,-0.17829,0.0404,-1.00211,-0.00607,0.01106,0.07825
1788186393.114608,0.02803,0.02601,-1.00487,-0.00677,0.00282,0.00134
1788186393.1307206,0.0087,0.00813,-1.00153,0.00141,0.00183,0.01261
1788186393.2518036,-0.00057,0.0238,-0.99972,0.00238,0.00748,-0.00868
1788186393.3562818,-0.00857,0.02249,-1.00206,0.00379,0.00189,-0.01276
1788186393.390997,-0.01582,0.00702,-1.00397,0.00353,0.00129,0.00979
1788186393.5091085,-0.01644,0.00586,-1.00158,0.00267,0.00654,0.01655
1788186393.6645453,-0.00768,0.01947,-1.00302,-0.00094,0.00724,-0.00675
1788186393.768347,-0.00969,0.02116,-1.00784,0.00129,0.00626,-0.01893
1788186393.868358,-0.03165,-0.12512,-1.01157,0.00883,-0.04258,1.47496
1788186394.004754,0.01419,0.00871,-0.99531,0.01804,-0.01866,1.21504
1788186394.0118995,0.00102,-0.0022,-0.98026,-0.02162,-0.01072,1.42776
1788186394.183137,0.00382,-0.02211,-0.99405,-0.00829,-0.01073,1.5135
1788186394.265444,0.00971,-0.00235,-0.97535,0.07952,0.02885,1.55472
1788186394.3776836,0.02347,-0.00266,-1.01688,-0.01442,-0.04375,1.53751
1788186394.4739897,0.04267,0.02317,-1.02294,0.01274,-0.03029,1.5137
1788186394.5859644,0.0105,0.02298,-1.0179,-0.02956,-0.0348,1.54705
1788186394.6748977,0.0027,-0.00184,-0.99469,-0.0071,-0.00396,1.55915
1788186394.7721894,0.02843,-0.01437,-0.98562,0.01316,-0.01193,1.59067
1788186394.8350282,0.01533,-0.02523,-0.99299,0.02161,0.00589,1.6058
1788186394.9320915,0.00956,-0.01443,-0.99592,0.00642,-0.03489,1.63027
1788186395.0880623,0.00328,-0.00693,-1.01611,0.0008,0.01539,1.58259
1788186395.1552222,0.02191,0.03136,-0.99432,0.00802,-0.02433,1.5027
1788186395.2333949,0.01972,-0.0117,-0.99158,-0.00085,-0.00689,1.59168
1788186395.4961395,0.01279,-0.03451,-0.96857,0.02346,0.03069,1.5953
1788186395.500146,0.04432,0.02951,-1.04662,0.02463,-0.05987,1.55001
1788186395.62917,0.02169,0.02688,-1.00413,0.02078,-0.01176,1.54865
1788186395.6510127,0.00255,-0.01689,-0.98437,-0.00999,0.01027,1.57747
1788186395.8150826,0.02323,-0.00707,-0.98981,0.02352,0.00827,1.57464
1788186395.9123876,0.03804,0.13369,-0.99551,0.01767,0.01677,0.59432
1788186396.030765,0.03406,0.12218,-0.9999,-0.01183,0.01099,0.01265
1788186396.046585,0.25043,0.04492,-1.00052,0.02158,0.01994,-0.05688
1788186396.149151,0.21288,-0.03301,-1.00317,0.01894,-0.02638,0.02429
1788186396.2467728,-0.04649,0.00593,-1.00146,-0.03393,-0.01816,0.01063
1788186396.3772206,-0.18241,0.01251,-0.97032,0.01594,0.00962,0.03957
1788186396.4600852,-0.06637,0.01157,-0.99302,0.02656,0.02179,0.01172
1788186396.5774658,0.1151,0.03686,-0.97872,0.0231,0.0667,-0.017
1788186396.6716566,0.06175,-0.0287,-1.01864,-0.03447,-0.00568,0.01574
1788186396.7722642,-0.06019,0.01617,-0.98829,0.00412,0.03698,0.00724
1788186396.8697672,-0.08028,0.00894,-1.00199,0.00941,0.00734,0.03198
1788186396.9877996,0.03555,0.00267,-0.98725,-0.01215,0.00485,0.02196
1788186397.091101,0.00097,0.00027,-0.99101,-0.01326,-0.00558,-0.0228
1788186397.199062,-0.05187,-0.04379,-1.0324,-0.05433,-0.03263,0.0657
1788186397.3122666,-0.04644,-0.02675,-1.00018,-0.00103,-0.00179,0.01152
1788186397.421725,-0.00155,0.03749,-0.96584,0.03154,0.00352,0.01074
1788186397.521948,0.00394,0.04142,-0.99546,0.01715,0.01743,-0.04547
1788186397.639804,-0.01235,0.03393,-1.0011,0.01053,0.00336,-0.04242
1788186397.7547624,-0.03307,-0.0159,-0.99197,-0.02176,0.00026,0.04381
1788186397.7653623,-0.01821,-0.00818,-0.99136,-0.01128,0.01565,-0.01545
1788186397.8842304,-0.02206,-0.01272,-0.99941,0.00851,-0.00943,0.0442
1788186398.0772939,-0.16132,0.00408,-0.98404,0.00229,-0.01403,0.01377
1788186398.158889,-0.16351,-0.03747,-1.0028,0.01877,0.01379,0.01236
1788186398.280372,-0.02135,0.00954,-1.00061,0.00397,0.00791,-0.00286
1788186398.2909954,-0.04157,0.00943,-1.00154,0.00216,0.00573,0.00547
1788186398.4850433,-0.04096,0.00916,-1.00079,0.0025,0.00514,0.00398
1788186398.4850433,-0.02311,0.01005,-1.00112,0.00428,0.00267,0.00253
1788186398.6813233,-0.01328,0.0092,-1.00284,0.00314,0.00566,0.00422
1788186398.69399,-0.02016,0.00886,-1.00218,0.00115,0.00601,0.0004
1788186398.8652756,-0.02483,0.00819,-1.00161,0.00237,0.00733,0.00524
1788186398.9794264,-0.01909,0.00731,-1.00069,0.00373,0.00528,0.00441
1788186399.0887187,-0.13245,-0.43514,-1.04372,-0.02525,-0.01354,1.45947
1788186399.106095,0.04036,0.08056,-1.01062,-0.00957,0.01331,1.23373
1788186399.2272804,0.002,0.01853,-1.00838,0.01063,-0.01391,1.45195
1788186399.3460789,-0.00953,0.0155,-1.0056,0.00522,-0.0296,1.45898
1788186399.4666882,0.00973,0.02008,-0.99415,0.026,0.02707,1.52756
1788186399.5908177,0.00433,-0.0165,-0.97011,0.01017,0.05344,1.56832
1788186399.7033513,0.01956,-0.01646,-1.02217,0.00463,-0.01972,1.58571
1788186399.7162955,0.01921,-0.00483,-1.02399,-0.02269,-0.01223,1.58789
1788186399.9114833,0.00277,0.02235,-1.00579,0.00145,-0.02979,1.54144
1788186399.9114833,0.02225,0.05017,-0.9895,0.03758,-0.00191,1.499
1788186400.0080297,0.06716,0.23026,-0.9971,-0.007,0.00125,0.59289
1788186400.1326892,0.07012,0.22952,-0.99794,-0.02219,0.00285,-0.11629
1788186400.2309628,0.22842,0.02221,-1.01846,0.00704,0.02231,-0.09302
1788186400.3310766,0.18689,0.01744,-0.98521,0.03888,-0.01332,-0.00448
1788186400.43418,-0.07401,0.02825,-1.00992,-0.0302,-0.0318,0.00922
1788186400.546819,-0.17947,0.02464,-0.96832,0.01025,0.01049,0.02855
1788186400.65992,-0.03466,0.04481,-0.99353,0.00104,0.01458,0.01401
1788186400.731432,0.09369,0.00954,-0.99931,-0.03421,0.0388,0.0091
1788186400.8958812,0.04828,0.03225,-1.0061,-0.00591,-0.03309,-0.01325
1788186400.993956,-0.07303,0.00021,-0.9794,-0.0197,0.05797,0.04201
1788186401.106441,-0.05876,0.00296,-0.99729,-0.00526,0.02333,0.02906
1788186401.202285,-0.02379,-0.03383,-1.02298,-0.02067,0.00881,0.08246
1788186401.3159797,0.0202,0.03401,-0.9872,0.06282,0.02512,-0.01798
1788186401.4336977,-0.00115,-0.01127,-0.98482,-0.046,0.02482,0.03983
1788186401.4410777,-0.07239,-0.04272,-1.04832,-0.06285,-0.01594,0.06807
1788186401.5521405,-0.03172,0.03212,-0.98447,-0.03966,0.01237,-0.00365
1788186401.76145,-0.00526,0.0279,-0.97237,0.00257,0.01174,-0.00276
1788186401.8738375,-0.01241,0.00858,-0.99942,-0.0122,-0.00872,0.01948
1788186401.9812984,-0.03293,0.0233,-0.99143,0.03483,-0.00588,-0.01343
1788186402.0923724,-0.00088,0.02009,-1.00586,-0.01132,0.01134,-0.01085
1788186402.203635,-0.03821,0.02313,-1.02147,0.03817,-0.03045,-0.00497
1788186402.4574745,-0.28338,0.00693,-0.99788,-0.00016,0.01865,-0.00141
1788186402.473109,-0.10175,0.01235,-1.00198,0.00989,-0.00645,-0.11285
1788186402.4735544,0.01643,0.02956,-1.00201,0.00015,0.00462,0.00588
1788186402.5795898,0.00459,0.00612,-1.00292,0.00288,0.00579,0.00684
1788186402.7728157,-0.00446,0.02297,-1.00127,0.00424,0.00532,-0.00403
1788186402.7728157,-0.01065,0.03294,-1.00026,0.0044,0.00441,-0.00426
1788186402.9419577,-0.01151,0.02653,-0.9993,0.00499,0.00608,-0.00407
1788186403.0602193,-0.01458,0.02073,-1.00032,0.00377,0.00678,-0.00237
1788186403.1085756,-0.01851,0.00578,-0.99981,0.00792,0.00382,0.00797
1788186403.2021453,-0.02768,-0.02402,-0.98129,-0.02496,0.03085,0.08253
1788186403.381132,0.00394,0.03181,-1.01355,0.00272,0.01757,1.43012
1788186403.3949738,-0.00955,-0.06684,-1.00586,-0.00155,-0.0135,1.47689
1788186403.4921148,0.01641,-0.00377,-0.99944,-0.00647,-0.02658,1.4464
1788186403.5944228,0.02298,0.00641,-1.00113,0.02258,-0.02398,1.50117
1788186403.6907709,0.0162,0.00381,-1.00807,0.00153,-0.02232,1.54912
1788186403.804168,0.02217,0.01697,-0.95977,0.01334,0.02814,1.56472
1788186403.888348,0.029,0.0324,-1.03439,-0.03035,0.00682,1.53711
1788186404.0927436,0.02698,-0.01529,-1.02256,-0.01205,-0.04547,1.58895
1788186404.2069485,0.03213,0.06556,-0.99892,0.05171,0.008,1.42468
1788186404.3052788,-0.00918,0.02587,-0.99876,0.00389,0.00591,0.44092
1788186404.410165,0.01605,0.07013,-0.99778,0.00328,0.01294,-0.05694
1788186404.5069094,0.25828,0.01785,-1.01926,0.02343,0.00128,-0.00406
1788186404.618724,0.16904,0.01554,-1.02462,-0.08805,-0.0626,0.04834
1788186404.7144346,-0.08045,0.03164,-0.99822,-0.03137,-0.01773,-0.04224
1788186404.8584414,-0.18319,-0.00874,-1.02225,-0.06171,0.00217,0.02668
1788186404.9696205,-0.01344,0.06162,-0.99085,-0.02342,0.01718,-0.01321
1788186405.0347397,0.09991,0.0408,-0.9978,0.01628,0.02139,0.00775
1788186405.1943717,0.03788,0.00238,-0.99308,-0.01783,0.00019,-0.00805
1788186405.3070958,-0.07449,-0.0034,-1.01941,-0.03981,-0.02199,0.00772
1788186405.4200554,-0.06101,0.0352,-0.98089,0.01042,0.01134,-0.01766
1788186405.4200554,0.01711,0.06422,-0.97403,0.04193,0.01174,-0.06186
1788186405.5332823,0.04495,0.05274,-1.00644,0.04296,0.00493,-0.03995
1788186405.6557891,-0.01072,-0.01149,-1.02191,0.00982,-0.04208,0.03477
1788186405.759643,-0.02878,0.03816,-0.99235,-0.00653,-0.00603,-0.00675
1788186405.9314792,-0.01307,0.05841,-1.00238,-0.01406,-0.00137,-0.0266
1788186405.9566946,0.0112,0.03129,-1.00772,0.06314,-0.00957,0.01229
1788186406.0945325,0.01577,0.00306,-0.96391,-0.07784,0.05985,-0.01186
1788186406.1540213,-0.02006,-0.01059,-1.01258,0.01069,-0.01093,-0.02788
1788186406.3127255,-0.04956,0.00233,-1.01271,-0.00747,-0.00272,0.03703
1788186406.4413486,-0.00714,0.00133,-1.00628,-0.01244,-0.00183,-0.00751
1788186406.6711714,-0.25817,0.00859,-0.95859,0.01209,-0.00391,0.01893
1788186406.6829574,-0.05247,-0.00526,-1.00266,0.00592,0.01426,0.00132
1788186406.770706,-0.00977,-0.00557,-1.00012,0.00235,0.00854,0.0096
1788186406.867649,-0.0056,0.02418,-1.00021,0.00549,0.00698,-0.00585
1788186406.9642904,-0.01263,0.0132,-1.00215,0.00245,0.007,0.00818
1788186407.0771534,-0.01036,0.00914,-1.00096,0.00264,0.00685,0.00181
1788186407.174405,-0.01284,0.00877,-0.9998,0.00645,0.00718,0.00898
1788186407.3346148,-0.01113,0.01436,-1.00156,0.00569,0.0064,0.00478
1788186407.4513257,-0.01252,0.02735,-1.00129,0.00494,0.00911,-0.00698
1788186407.4643734,-3e-05,0.03535,-0.96986,-0.04003,0.04541,-1.67875
1788186407.5753987,0.01542,0.07178,-0.98802,-0.04842,0.04012,-1.31292
1788186407.6958766,0.00269,-0.02659,-0.99304,-0.02687,0.02053,-1.38864
1788186407.7908998,0.00344,0.02418,-1.00616,0.0122,0.03698,-1.49847
1788186407.894044,0.0248,0.05629,-1.00327,-0.01337,0.00674,-1.54675
1788186407.9950106,-0.007,-0.05511,-1.02385,-0.03467,-0.02494,-1.55504
1788186408.117824,0.00304,-0.00947,-1.01239,-0.01411,0.01912,-1.56836
1788186408.182227,0.01469,0.01835,-0.97026,-0.02916,0.03528,-1.5617
1788186408.3505318,-0.00638,-0.00464,-0.98578,0.01711,0.01698,-1.51565
1788186408.478595,0.03043,0.03122,-1.01496,-0.00281,-0.00034,-1.60212
1788186408.4943168,-0.02984,-0.06263,-1.00951,0.00625,0.01788,-0.49605
1788186408.6079104,-0.02706,-0.02161,-0.99985,0.00223,0.00509,-0.10319
1788186408.7141228,-0.00697,0.03512,-1.00086,0.00384,0.0062,-0.00499
1788186408.8025024,-0.01302,0.00421,-1.00073,0.00564,0.00617,0.00201
1788186408.9280727,-0.01573,0.00451,-1.00158,0.00101,0.00667,0.00799
1788186409.110448,-0.01359,0.01074,-1.00267,0.00168,0.00524,0.00285
1788186409.129943,-0.00379,0.0094,-0.99869,0.00306,0.00897,0.0006
1788186409.225485,0.25066,0.02561,-1.00126,-0.01216,0.01887,0.03799
1788186409.324666,0.16617,0.00808,-1.0118,0.04961,-0.03978,-0.01295
1788186409.4274518,-0.08021,0.04908,-0.99558,0.03538,-0.01102,-0.04644
1788186409.5409014,-0.19592,-0.00459,-1.01222,0.04411,-0.00385,0.03522
1788186409.6217518,-0.0053,0.06076,-0.9971,0.02638,-0.00372,-0.03415
1788186409.7492142,0.10625,0.02044,-0.99594,0.03507,0.01256,-0.01473
1788186409.8284407,0.04426,0.01592,-0.99057,0.01121,0.01511,0.00794
1788186409.9831753,-0.07358,0.01314,-1.00496,0.0034,0.0386,-0.02546
1788186410.0952454,-0.07118,0.01262,-1.01528,-0.01667,0.02277,0.00307
1788186410.1437316,-0.01609,-0.05226,-1.02029,-0.03907,0.04593,0.09049
1788186410.2569659,0.03364,-0.0042,-1.0069,-0.02325,0.01216,0.01584
1788186410.3600092,0.00331,0.02731,-1.02249,-0.02478,0.0264,0.00223
1788186410.4444125,-0.03178,0.02235,-1.0296,0.04899,-0.04558,0.00711
1788186410.5734403,-0.0207,0.0405,-0.99398,0.02678,-0.00448,-0.01502
1788186410.7776415,0.01949,0.03648,-1.00108,0.00942,-0.01784,-0.01103
1788186410.8676941,-0.01962,0.05102,-1.01023,-0.0247,-0.01171,-0.01267
1788186410.9806306,-0.10113,-0.05365,-1.01445,0.01157,-0.03032,0.06626
1788186411.0612383,-0.29808,-0.00393,-1.00357,-0.00492,0.01516,-0.07099
1788186411.184074,-0.053,0.063,-1.00042,0.00474,0.00409,0.11674
1788186411.4145658,0.10352,-0.02806,-0.9973,0.00223,0.01792,-0.06061
1788186411.4631834,-0.02209,0.00842,-1.00306,0.00298,0.01467,0.00154
1788186411.6666226,-0.01961,0.00779,-1.00137,0.00236,0.00304,0.00813
1788186411.7863464,-0.01138,0.00862,-1.00114,0.00462,0.00216,0.00259
1788186411.8781905,-0.01018,0.00943,-1.00163,0.00382,0.00481,0.00105
1788186411.993247,-0.0106,0.0086,-0.99937,0.00451,0.00507,0.00542
1788186412.0090468,-0.13951,-0.34988,-0.99487,0.03215,-0.00575,0.93432
1788186412.188033,0.04209,0.09626,-1.00467,-0.04542,-0.00135,1.26957
1788186412.29005,0.00649,0.0026,-1.01198,0.01668,-0.01021,1.41513
1788186412.4007077,-0.00034,-0.00511,-1.02428,-0.01209,0.00812,1.49575
1788186412.4143567,0.01129,-0.01467,-1.02065,-0.00256,-0.00277,1.52265
1788186412.5103612,0.02334,0.00225,-1.01075,-0.0081,0.0135,1.49145
1788186412.6344845,0.02074,0.02523,-0.99596,0.02729,0.02373,1.49533
1788186412.8121176,0.01808,-0.00385,-0.97703,0.05852,0.01817,1.57637
1788186412.82791,0.02439,0.00161,-1.01117,0.06229,-0.03116,1.5528
1788186413.0211153,0.01012,0.00259,-1.02938,0.00482,-0.02163,1.61879
1788186413.0211153,0.03865,0.01612,-1.01716,-0.03709,-0.00758,1.53988
1788186413.225168,0.00549,-0.01394,-0.99872,-0.00304,-0.01554,1.55968
1788186413.2977905,0.0098,-0.00876,-0.99583,0.01354,0.0113,1.57128
1788186413.4191375,0.02107,0.02321,-1.00737,0.00046,-0.02083,1.59338
1788186413.4358199,2e-05,0.00041,-1.03634,-0.04353,-0.03617,1.62168
1788186413.573316,0.02049,-0.00163,-1.00517,-0.01429,-0.0058,1.55068
1788186413.7141602,0.02286,0.01736,-1.00858,0.01377,-0.01348,1.53372
1788186413.730264,0.01673,-0.01167,-1.00782,0.03112,-0.01883,1.58213
1788186413.843719,0.01283,-0.00619,-0.99166,0.02815,-0.02818,1.54718
1788186414.0519962,0.01055,0.01261,-1.01956,0.01208,-0.01729,1.61166
1788186414.0732892,0.07235,0.16539,-1.00074,-0.03305,0.00101,1.17462
1788186414.176577,0.01098,0.03908,-1.00494,0.01049,-0.01012,0.42198
1788186414.3055284,0.01561,-0.03562,-0.99978,0.00943,0.01985,0.02572
1788186414.4340146,0.26936,-0.00152,-0.99998,0.01678,0.00057,0.06069
1788186414.5145376,0.115,0.01185,-1.02577,0.00494,-0.03642,-0.03218
1788186414.628384,-0.14534,-0.00331,-0.97628,-0.00352,0.03389,0.02764
1788186414.6442428,-0.15663,0.00869,-1.01103,-0.00895,-0.00286,-0.03422
1788186414.850491,0.02421,0.00187,-1.00341,-0.00974,0.01869,-0.03443
1788186414.954278,-0.00101,0.03434,-0.99606,0.00353,0.03852,0.04921
1788186415.0599267,-0.08191,0.03303,-0.9955,0.02119,0.00983,0.00463
1788186415.1879137,-0.0733,0.00484,-1.00788,-0.01079,0.01888,-0.04415
1788186415.2693245,0.02339,-0.01598,-0.99891,0.0202,0.0125,-0.00965
1788186415.3748016,0.02457,-0.00296,-0.99052,0.018,0.02521,0.02199
1788186415.5400167,-0.03269,0.03929,-1.00058,-0.03941,-0.00019,0.02819
1788186415.6328423,-0.01789,0.02311,-1.00825,-0.00936,0.0564,-0.04162
1788186415.7422643,0.01528,-0.00213,-0.9979,0.00753,0.02285,0.02525
1788186415.8588328,0.02501,0.03183,-1.01618,-0.01696,0.00121,-0.0309
1788186415.9858642,-0.0163,0.02519,-0.99423,0.01381,-0.01099,-0.03129
1788186415.9907615,-0.0362,-0.02091,-1.0121,-0.01949,-0.03517,0.0495
1788186416.1024613,-0.07147,-0.01868,-0.99805,0.01575,-0.03497,0.02565
1788186416.1804378,-0.28353,0.04815,-1.00763,-0.01177,-0.00199,-0.06585
1788186416.283916,-0.11049,-0.06508,-0.99466,-0.01116,0.00648,0.08109
1788186416.3817708,0.12798,0.01983,-1.00199,0.00877,0.0218,-0.00776
1788186416.5908751,0.02821,0.01633,-1.00158,0.00293,0.00834,-0.00507
1788186416.6041603,0.00957,0.00758,-1.00194,0.0011,0.00483,0.01011
1788186416.7963812,-0.00018,0.01725,-1.00051,0.00355,0.00491,0.00383
1788186416.8111746,-0.01109,0.00923,-1.00144,0.00349,0.00362,0.00616
1788186416.9081838,-0.01183,0.01319,-1.00047,0.00343,0.00719,0.00244
1788186417.01359,-0.01129,0.01283,-1.00209,0.00452,0.00712,0.00255
1788186417.1940007,0.04628,0.15784,-0.99261,-0.02048,0.05774,-0.40063
1788186417.211722,-0.01429,-0.13678,-1.00016,-0.02557,0.03588,-1.29216
1788186417.3357763,0.02729,0.00898,-1.00089,0.00152,0.02687,-1.41852
1788186417.6134973,0.00622,0.02022,-0.99301,-0.00737,0.05225,-1.46249
1788186417.6134973,0.02018,0.02722,-1.01949,0.01734,0.00284,-1.51612
1788186417.7326708,0.0077,0.00156,-1.00389,0.03891,-0.00594,-1.54402
1788186417.8061159,0.04244,0.02713,-0.98433,0.02416,-0.00118,-1.60332
1788186417.8267558,0.04543,0.03101,-0.97846,0.01976,0.02556,-1.59502
1788186417.94726,0.0007,-0.00475,-0.97913,-0.08127,0.06792,-1.54093
1788186418.034284,0.00419,-0.00269,-0.99697,-0.02375,0.01552,-1.55118
1788186418.139392,-0.09218,-0.20456,-1.00541,0.00935,0.02496,-0.93107
1788186418.2348568,-0.02001,-0.01798,-1.00188,-0.0026,0.01469,-0.32274
1788186418.3419442,0.11958,0.03948,-0.99279,-0.02427,0.03681,-0.03535
1788186418.4573586,0.27913,-0.01331,-0.99471,0.02158,0.00139,0.0536
1788186418.585407,0.02965,0.01229,-1.01232,0.00818,0.01663,0.01805
1788186418.6973307,-0.17364,0.05176,-0.99399,0.02828,-0.00278,-0.02083
1788186418.8263128,-0.12316,0.04761,-0.98978,-0.00648,0.02196,-0.04008
1788186418.9382243,0.06451,0.06344,-0.99369,0.00511,0.05142,-0.03806
1788186418.9546573,0.10958,0.03658,-1.00729,0.01509,-0.01259,0.01515
1788186419.050919,-0.03045,0.00088,-0.99255,0.06256,-0.0388,-0.04436
1788186419.1480298,-0.10116,0.01675,-1.00103,-0.00495,0.03048,0.00154
1788186419.244252,-0.02992,0.04694,-1.00234,-0.00329,0.01723,-0.00213
1788186419.3413923,0.03163,0.00043,-1.03163,-0.02565,-0.00728,0.04148
1788186419.4890375,0.03108,0.02807,-0.99141,0.039,-0.01303,-0.05967
1788186419.5660253,-0.02393,0.0036,-1.00953,0.00763,0.00073,0.01062
1788186419.6749415,-0.02784,0.02731,-1.00399,-0.04171,7e-05,-0.02509
1788186419.8243077,-0.03063,-0.03335,-0.99189,-0.02356,-0.00261,0.04325
1788186419.867074,0.02275,0.01261,-0.96663,-0.00118,-0.00546,-0.02746
1788186419.9474754,0.00686,0.02227,-0.97751,-0.0027,0.03562,-0.01648
1788186420.1637921,-0.01893,-0.00338,-1.01072,-0.04129,0.02815,0.0334
1788186420.1637921,-0.00722,0.00365,-1.00987,-0.00609,-0.00979,0.00997
1788186420.2765143,-0.18624,-0.0109,-1.01479,-0.00038,-0.01685,0.00657
1788186420.3568466,-0.15382,0.02765,-0.9944,-0.00452,0.03303,-0.03542
1788186420.4851856,-0.00657,0.02091,-1.00209,0.00229,0.0162,0.00409
1788186420.6131718,-0.01146,0.01867,-1.00144,0.00316,0.00835,0.00289
1788186420.6883895,-0.00916,0.01659,-0.999,0.00459,0.00643,0.0023
1788186420.8061664,-0.00916,0.01659,-0.999,0.00459,0.00643,0.0023
1788186420.8804743,-0.00971,0.01557,-1.00222,0.00396,0.00346,0.00474
1788186421.0093887,-0.01022,0.0132,-0.99863,0.00473,0.00484,0.00353
1788186421.1822188,-0.00893,0.01604,-1.00059,0.00172,0.00421,0.0016
1788186421.1822188,0.10279,0.31284,-1.03373,-0.04631,0.03176,-1.56517
1788186421.294178,-0.01503,-0.01499,-1.00776,0.00121,0.01487,-1.24602
1788186421.423269,-0.00636,0.01091,-1.00211,0.01542,0.06325,-1.46534
1788186421.5036771,0.01544,-0.01025,-0.98524,0.06069,0.02827,-1.47599
1788186421.6637561,0.02267,0.02545,-0.97379,0.00247,0.02898,-1.57105
1788186421.695989,0.01082,0.0199,-0.98102,-0.05621,0.05837,-1.55728
1788186421.825291,-0.00176,-0.00202,-1.00693,0.00292,0.01094,-1.51777
1788186421.9205873,0.0066,0.02146,-1.0322,-0.01649,-0.01865,-1.58593
1788186422.0336018,0.01925,0.01111,-1.00772,0.02868,0.004,-1.57901
1788186422.1252577,0.02488,0.01729,-0.97311,0.00799,0.06904,-1.56431
1788186422.2298498,-0.07877,-0.19168,-0.99803,-0.00121,0.04016,-0.61865
1788186422.3320866,-0.025,-0.02005,-0.99923,0.00711,0.00744,-0.09171
1788186422.4509125,0.19568,0.01787,-1.00527,0.02244,0.01663,0.02372
1788186422.522972,0.23848,0.01595,-1.0235,0.02988,-0.0393,0.00632
1788186422.661422,-0.03212,0.0186,-0.9736,0.06413,0.00019,-0.02251
1788186422.7523308,-0.17834,0.02547,-0.99195,0.0459,0.00752,-0.01501
1788186422.919105,-0.07702,-0.02447,-0.98995,-0.02512,0.01756,-0.01544
1788186422.9351234,0.09407,0.04976,-0.97492,0.00506,0.05006,-0.0781
1788186423.0534246,0.0773,0.04915,-0.97096,0.00063,0.02415,-0.01806
1788186423.1280296,-0.04797,0.0535,-1.01211,-0.00665,0.04023,-0.01299
1788186423.2304811,-0.08817,0.00645,-1.0152,0.04003,0.01736,0.01105
1788186423.34922,-0.00011,0.05721,-1.01609,0.03962,0.00171,-0.05502
1788186423.4767542,0.03154,0.02387,-0.98012,0.06149,0.04021,0.01496
1788186423.573964,0.02449,0.03659,-0.98887,-0.00304,-0.0011,0.02921
1788186423.688006,-0.04478,0.0157,-0.99787,0.01313,0.01024,0.0014
1788186423.7716095,-0.02013,0.02125,-1.01751,-0.03509,-0.02464,0.01135
1788186423.9125829,0.00928,0.044,-0.97789,0.0035,-0.00174,0.01265
1788186423.9734194,0.03111,0.02041,-1.00506,-0.00786,0.00265,-0.03372
1788186424.1178994,-0.03523,-0.0368,-1.01227,-0.03641,-0.01937,0.08484
1788186424.1661332,-0.0193,0.03077,-0.9879,0.01749,-0.01289,0.01786
1788186424.2425528,-0.01737,0.02534,-0.98302,-0.01479,0.01803,-0.0053
1788186424.3555794,-0.01486,0.00453,-1.00949,-0.00069,-0.00123,0.02544
1788186424.4689617,-0.17715,0.00317,-1.01891,0.02885,-0.02349,-0.053
1788186424.679785,-0.26134,-0.06486,-0.99118,-0.00214,0.01698,0.0969
1788186424.679785,0.00318,0.01988,-1.00212,-0.00121,-0.00442,-0.00067
1788186424.788448,0.01384,0.03485,-0.99931,0.00195,0.00848,-0.00708
1788186424.8708076,-0.01194,0.00332,-1.00023,0.00552,0.01024,0.01064
1788186424.9892209,-0.00822,0.00509,-1.00186,0.00433,0.00266,0.01231
1788186425.0937402,-0.00578,0.00736,-1.00188,0.00282,0.00808,0.00562
1788186425.190514,-0.01033,0.02191,-1.00102,0.00179,0.00384,0.00421
1788186425.3026803,-0.01569,0.02588,-1.00076,0.00616,0.00276,-0.00494
1788186425.3946934,-0.01218,0.02785,-1.00183,0.00238,0.00481,-0.00573
1788186425.5875254,0.09587,0.01666,-0.993,-0.00524,0.03668,-0.00998
1788186425.5945253,0.27978,0.01649,-1.00484,-0.01017,0.02592,-0.05178
1788186425.696218,0.04815,-0.02062,-0.9912,0.02597,-0.03335,-0.00775
1788186425.8026161,-0.17028,0.02194,-1.04212,-0.09398,-0.04389,-0.01059
1788186425.9518836,-0.14066,0.0045,-1.00263,-0.01637,0.01925,0.00585
1788186426.0126817,0.04692,0.02268,-0.99705,0.01456,0.049,0.01242
1788186426.172962,0.10348,0.01822,-0.9818,0.00906,0.03712,-0.01178
1788186426.2219164,-0.01272,0.01603,-0.99457,0.01524,0.03119,0.01058
1788186426.383072,-0.09103,-0.02629,-0.97508,-0.00888,0.04712,-0.0308
1788186426.4957285,-0.02784,-0.00288,-0.97559,-0.04162,0.035,-0.03591
1788186426.4957285,0.04548,0.01325,-0.98798,-0.00503,0.00876,0.01196
1788186426.641111,0.0454,0.02285,-1.00741,-0.00446,0.0068,-0.00312
1788186426.7215838,-0.03655,0.00324,-0.99104,-0.00191,-0.00275,-0.02863
1788186426.8329127,-0.02519,0.02603,-1.00332,0.00404,0.01532,-0.04025
1788186426.9438167,0.00081,-0.01614,-0.99466,-0.00497,0.00654,0.01663
1788186427.056765,0.01004,-0.00111,-1.00306,0.02352,0.01676,-0.0161
1788186427.229253,0.00104,0.02315,-0.99528,0.00817,-0.01411,-0.02854
1788186427.3418605,-0.28753,0.02334,-0.99634,0.01607,0.01934,-0.08428
1788186427.4142878,-0.08993,-0.00255,-0.99942,-0.00504,0.01979,0.02836
1788186427.559444,0.14184,-0.00683,-1.00608,0.00074,0.01647,-6e-05
1788186427.6397934,0.01434,0.00968,-1.0002,-0.00163,0.00775,0.00372
1788186427.7509105,0.00437,0.01503,-1.0006,0.00322,0.00668,0.00237
1788186427.863844,-0.00398,0.01474,-1.00212,0.00537,0.0047,0.00682
1788186428.0510738,-0.01118,0.01495,-1.0032,0.0039,0.00647,0.00486
1788186428.1849167,-0.01028,0.01471,-1.00152,0.00467,0.00449,0.00434
1788186428.2059045,0.11925,0.37364,-1.00999,-0.00167,0.00048,-1.6179
1788186428.3328185,-0.00144,0.01326,-1.0013,0.00824,0.03237,-1.21724
1788186428.4613984,0.02117,0.0222,-0.99948,0.04557,0.03124,-1.46116
1788186428.6638427,-0.00116,0.02026,-1.00853,0.03786,0.01686,-1.51795
1788186428.6638427,0.03047,0.02819,-1.01023,0.04489,0.02016,-1.52697
1788186428.7881527,0.02624,-0.01599,-1.01363,-0.09757,0.00818,-1.52754
1788186428.8698628,-0.0029,-0.00401,-0.98722,0.04657,0.02668,-1.59002
1788186429.012932,0.03396,0.02105,-0.99804,0.03471,-0.01431,-1.58845
1788186429.0795894,0.00091,0.00018,-0.99274,0.04293,0.02759,-1.5316
1788186429.1892047,-0.00197,-5e-05,-1.00217,0.00648,0.02365,-1.599
1788186429.294868,-0.03815,-0.09513,-1.00246,-0.01558,0.01504,-0.51605
1788186429.4057426,-0.05817,-0.12122,-0.99776,-0.01826,0.02005,0.08978
1788186429.4900882,0.239,0.01772,-1.00103,0.00893,0.01073,0.05136
1788186429.629753,0.18655,0.00354,-1.00071,-0.00449,-0.01564,-0.00778
1788186429.64589,-0.08038,0.03369,-1.00015,-0.02891,-0.0441,-0.00579
1788186429.742894,-0.1845,-0.02088,-0.99494,-0.00154,0.00448,0.02039
1788186429.8726618,-0.03397,-0.01174,-1.03011,-0.0349,-0.0196,0.02632
1788186430.0817783,0.10692,0.01502,-1.00171,0.00451,0.03838,-0.05071
1788186430.0817783,0.05219,0.03881,-1.01612,0.03188,-0.00695,-0.03541
1788186430.2069857,-0.07366,0.01153,-1.0359,-0.02067,-0.03785,0.02908
1788186430.3190715,-0.09544,0.01156,-1.01932,0.02184,0.00059,0.01487
1788186430.4163747,-0.0083,-0.01157,-1.00069,0.05401,0.0181,0.02657
1788186430.5164416,0.04079,0.01134,-0.97686,0.00962,0.02033,0.01954
1788186430.6372707,-0.0137,0.0086,-0.98515,-0.02673,0.0162,0.02522
1788186430.7178514,-0.02801,0.03113,-1.00069,0.0224,0.0212,-0.02542
1788186430.7743156,-0.04504,0.01623,-1.00876,-0.01435,0.01005,0.02331
1788186430.8616881,-0.00787,0.02157,-1.00974,-0.01063,-0.00795,0.04709
1788186430.9896262,-0.00922,-0.03218,-0.96405,0.03812,0.06749,0.06418
1788186431.1001863,-0.05373,-0.01067,-1.03243,-0.02314,-0.01141,0.02404
1788186431.211416,-0.01878,0.01614,-0.98093,0.03253,0.04566,-0.0
1788186431.3302047,-0.0147,-0.00342,-1.00712,0.01756,-0.00839,0.05687
1788186431.4227498,-0.27433,-0.00609,-0.99776,-0.00375,0.01515,-0.03108
1788186431.4748275,-0.02503,0.00381,-1.00406,-0.00166,0.0043,0.00459
1788186431.6430073,0.00423,0.02172,-1.00009,0.00129,0.00703,0.00435
1788186431.7116845,0.00278,0.01505,-1.001,0.00106,0.00596,0.00542
1788186431.8366833,-0.00059,0.0155,-1.00096,0.00451,0.00654,0.0051
1788186431.9497337,-0.00221,0.01669,-1.00202,0.00373,0.00819,0.00375
1788186432.063333,-0.01129,0.01489,-1.00219,0.00262,0.00421,0.00471
1788186432.2341793,-0.0114,0.01372,-0.99953,0.00248,0.00477,-0.00035
1788186432.330952,-0.01039,0.01621,-1.00195,0.00281,0.00224,0.0052
1788186432.4277282,0.19426,0.00162,-0.99183,0.00417,0.0377,-0.01704
1788186432.53926,0.24193,0.00582,-1.01023,0.01257,0.00561,0.00298
1788186432.666677,-0.18605,0.04548,-0.99844,-0.019,0.02354,-0.02985
1788186432.7952545,-0.0818,0.03327,-1.00906,-0.00401,0.04737,0.00106
1788186432.9118521,0.10587,0.04659,-1.01858,-0.01287,0.00576,-0.05215
1788186433.0088987,0.05915,-0.00137,-1.03621,-0.03142,-0.00214,0.02616
1788186433.133761,-0.04455,0.03025,-1.00673,0.04371,-0.02261,-0.02883
1788186433.226052,-0.09784,-0.00838,-1.00398,0.00293,0.04213,-0.00298
1788186433.3402252,-0.02848,-0.01027,-1.01945,0.01572,0.00531,0.0368
1788186433.4502041,0.04715,0.03079,-1.00862,0.01989,-0.0032,-0.02053
1788186433.5642214,0.02768,0.04211,-1.01193,0.01634,-0.02415,-0.01872
1788186433.6931334,-0.03375,0.03836,-0.98307,0.05519,0.02331,-0.01803
1788186433.8015888,-0.02662,0.02687,-1.01847,0.00535,-0.03001,0.01307
1788186433.8130717,-0.00201,0.01346,-1.02055,-0.0005,-0.01039,-0.04547
1788186433.9951127,0.02246,0.01637,-0.97316,0.02378,0.0137,0.00737
1788186434.1246078,0.00351,0.02069,-1.01327,-0.00864,-0.02287,0.02618
1788186434.2371178,-0.00853,0.03258,-1.01348,-0.01683,0.00203,0.02343
1788186434.335156,0.02934,0.03854,-1.01194,-0.00127,-0.00061,-0.02842
1788186434.440658,-0.19819,-0.0772,-1.03069,-0.05854,-0.03073,0.06027
1788186434.60145,-0.13586,0.02662,-1.00708,0.00843,0.02436,-0.01919
1788186434.7185977,-0.01147,0.01571,-1.00081,0.00515,0.01596,0.00111
1788186434.8186274,-0.03062,0.01307,-0.99853,-0.00089,0.00979,0.00516
1788186434.9505444,-0.02483,0.0179,-1.00152,0.00045,0.00505,-0.0007
1788186435.1269205,-0.01562,0.01374,-1.00143,0.00479,0.00839,0.00222
1788186435.14288,-0.01839,0.01554,-1.00185,0.00165,0.00422,0.00359
1788186435.2576818,-0.01382,0.0161,-1.00172,0.00269,0.00729,0.00256
1788186435.3588686,-0.01541,0.01574,-1.00003,0.00542,0.00829,0.00302
1788186435.4704885,0.0922,0.02317,-0.99712,-0.00909,0.02546,-0.02471
1788186435.6007206,0.06191,0.01752,-1.02483,0.02078,-0.07025,-0.01807
1788186435.7132452,-0.16031,0.02728,-0.98989,0.03086,-0.00958,0.00437
1788186435.8095994,-0.10949,0.05253,-1.02894,0.01973,-0.01404,-0.04211
1788186435.9323952,0.0701,0.044,-1.00136,-0.01626,0.03151,-0.01403
1788186436.0278733,0.0895,0.04106,-1.00403,-0.02127,0.03425,-0.0191
1788186436.140908,-0.01696,0.00721,-0.97229,0.01986,0.01313,0.03062
1788186436.2380333,-0.06356,0.01779,-1.00458,0.00084,0.03838,-0.03291
1788186436.3704352,-0.03208,-0.01549,-1.02784,-0.0383,0.00353,-0.0025
1788186436.3817027,0.05031,0.04844,-1.02034,-0.04143,0.0037,-0.02761
1788186436.4946055,0.02719,0.01528,-0.99378,-0.00392,0.02778,0.05596
1788186436.6069853,-0.01997,0.0213,-0.99907,-0.00119,-0.00827,-0.00597
1788186436.7037067,-0.03658,0.02396,-0.94708,0.02516,0.01793,0.03543
1788186436.8330789,-0.03326,-0.00975,-0.99311,0.00307,0.02942,0.04152
1788186436.9405038,-0.0044,0.01201,-1.02161,-0.01691,-0.01644,0.04048
1788186437.040989,-0.01413,-0.00266,-1.01907,0.0055,-0.01779,0.00454
1788186437.159915,-0.02618,-0.00313,-1.00309,-0.02259,0.01584,0.02881
1788186437.2608736,-0.03657,0.025,-1.01817,0.04193,-0.01915,0.02074
1788186437.308667,-0.01453,0.04911,-0.99096,0.01318,0.01754,-0.03144
1788186437.4863298,-0.10532,-0.01966,-1.00517,0.01347,0.01905,-0.0096
1788186437.5969467,-0.27385,0.00871,-0.97625,0.0382,0.03758,-0.07835
1788186437.5969467,-0.01738,0.02748,-1.00346,0.00503,-0.00771,0.00794
1788186437.7805326,-0.01167,0.01749,-1.00331,-0.00041,-0.00097,-0.00103
1788186437.8895583,-0.01498,0.01651,-1.00075,-0.00014,0.00582,0.00311
1788186438.0920324,-0.00439,0.01681,-1.00146,0.0017,0.00627,0.00612
1788186438.2051053,-0.00222,0.01779,-0.99993,0.0065,0.00445,0.00251
1788186438.2339494,-0.00298,0.01844,-1.00118,0.00389,0.00631,0.00604
