unix_timestamp,acc_x,acc_y,acc_z,gyro_x,gyro_y,gyro_z
1784518671.2511098,-0.0101,0.01131,-0.9986,0.00255,0.00468,0.00471
1784518671.257284,-0.00673,0.00965,-0.99648,0.00525,0.0015,0.00625
1784518671.4522507,-0.00882,0.01074,-0.9984,0.00481,0.00317,0.00408
1784518671.660469,0.23684,0.02805,-0.99902,-0.00623,0.0136,-0.05225
1784518671.6674066,0.16262,0.02109,-0.95839,-0.03862,0.02158,0.01534
1784518671.8700626,0.16771,0.00027,-1.02268,-0.03309,-0.03309,0.04473
1784518671.9378266,0.06452,0.0104,-1.03232,0.05021,0.01672,-0.01397
1784518672.0765862,-0.11106,0.03811,-1.00432,-0.01876,-0.12132,0.01767
1784518672.2790182,-0.2674,-0.00832,-0.93436,0.02673,0.07395,0.01537
1784518672.4870374,-0.21695,0.0234,-1.01595,0.01358,-0.02194,-0.05236
1784518672.4870374,-0.06578,0.01699,-0.98427,-0.00027,0.04954,0.03669
1784518672.6843336,0.03801,0.02599,-0.97867,0.01939,0.03014,-0.02336
1784518672.889292,0.08141,0.02271,-1.0201,0.02413,-0.04209,-0.03291
1784518672.889292,-0.02691,0.01779,-0.98853,0.00284,-0.01147,-0.01796
1784518672.9213715,-0.03396,0.0184,-1.00286,0.00643,0.00407,-0.00401
1784518673.0975413,-0.02989,0.02257,-0.99988,0.01056,-0.00147,-0.00609
1784518673.3055959,-0.03834,0.01237,-0.99534,0.0041,-0.00311,0.0196
1784518673.3055959,-0.0184,0.01071,-0.99778,0.00542,0.00518,0.00816
1784518673.4950566,-0.02072,0.01188,-0.99832,0.00318,0.00411,0.00221
1784518673.7004077,-0.01963,0.01113,-0.99609,0.00488,0.0047,0.00454
1784518673.7125742,-0.01842,0.01013,-0.99929,0.00543,0.00526,0.00291
1784518673.907982,-0.01165,0.01152,-0.99677,0.00553,0.0049,0.00652
1784518673.907982,-0.0019,0.03085,-0.99227,0.01978,0.00733,0.46247
1784518674.1233864,-0.01381,0.01056,-0.99608,0.01946,-0.00532,0.43906
1784518674.1233864,0.00457,0.00713,-0.99643,-0.00126,0.00234,0.46492
1784518674.3272896,-0.03188,0.01998,-0.98723,0.03392,0.01336,0.50894
1784518674.5286615,0.00929,0.03151,-0.99833,0.00473,0.00045,0.49429
1784518674.5346835,0.00072,0.05018,-1.01189,0.00644,-0.01875,0.46581
1784518674.736939,-0.00397,-0.0107,-0.99591,-0.00119,-0.00105,0.60153
1784518674.736939,-0.03056,0.02181,-0.99467,0.00863,0.00199,0.51014
1784518674.938379,0.00166,-0.01639,-0.9968,0.00021,-0.00796,0.53738
1784518675.1375587,-0.00748,0.03207,-0.99856,0.01237,-0.0056,0.49366
1784518675.1375587,-0.00219,0.02734,-1.00171,-0.00287,-0.00347,0.53671
1784518675.3511953,-0.00943,0.03708,-0.99115,0.00517,0.00486,0.49812
1784518675.3522336,-0.00017,-0.00516,-1.00314,0.00959,-0.01244,0.5364
1784518675.5522408,-0.01868,0.01224,-0.99849,0.01215,-0.00189,0.52816
1784518675.5522408,-0.01251,0.00697,-1.0095,0.01044,-0.00091,0.50518
1784518675.5681708,-0.01219,-0.00831,-0.98931,0.00249,0.00252,0.57417
1784518675.7585232,-0.01076,-0.00546,-0.99443,0.0204,0.00447,0.5357
1784518675.9306147,0.00461,-0.00099,-0.99522,0.0074,-0.00154,0.48546
1784518675.9426835,-0.01372,0.00805,-1.00136,0.01866,-0.00679,0.5384
1784518676.1676989,0.00193,0.01811,-0.99812,-0.00036,0.00269,0.55864
1784518676.374992,-0.01139,0.02532,-0.99077,0.03342,0.00784,0.49129
1784518676.374992,0.02653,0.0115,-0.99765,0.00288,-0.00208,0.50288
1784518676.565955,-0.00408,-0.00141,-1.00103,-0.00134,-0.00228,0.53148
1784518676.582288,-0.02922,0.03583,-1.0104,0.0019,-0.02424,0.49463
1784518676.7818542,0.00102,0.02854,-1.00017,0.00219,0.00199,0.51751
1784518676.7818542,-0.01425,0.00907,-0.99679,0.02318,0.00669,0.54108
1784518676.937678,0.07693,-0.09267,-0.98525,0.03418,0.01488,0.0594
1784518677.1943383,0.12539,-0.02148,-1.02747,-0.09958,-0.02165,0.06714
1784518677.3959384,0.14251,0.00219,-0.94541,0.01713,-0.00229,0.01243
1784518677.604657,0.02273,0.00247,-1.0224,0.01837,0.07052,0.00198
1784518677.604657,0.05495,0.01631,-1.01854,-5e-05,-0.06517,-0.0105
1784518677.805045,-0.29673,-0.01492,-1.00919,0.02299,-0.00771,0.04868
1784518677.805045,0.02338,0.03305,-0.97449,0.04236,0.02116,0.00259
1784518677.9469798,-0.16485,0.02672,-0.97303,0.00932,-0.02296,-0.02247
1784518677.9512424,-0.12561,-0.02516,-1.00406,-0.00813,0.01439,0.04996
1784518678.218414,0.02692,0.00426,-1.01983,-0.00068,-0.00893,0.00968
1784518678.4226508,-0.0272,0.00699,-0.98877,-0.00354,0.00265,0.01517
1784518678.6132088,-0.02693,0.00378,-0.99688,0.00549,0.0106,0.012
1784518678.8194296,-0.02176,-0.00039,-0.99553,-0.00086,0.01501,0.02069
1784518678.8194296,-0.04723,0.00391,-0.98916,0.00322,0.01027,0.02412
1784518678.9399438,-0.03699,0.00992,-0.9947,0.0128,0.02172,-0.01415
1784518679.2420788,-0.02913,0.00788,-0.99288,0.00373,0.002,0.00725
1784518679.2420788,-0.01302,0.01009,-0.99539,0.00283,0.00536,0.00435
1784518679.433544,-0.0277,0.00329,-0.99804,0.00873,0.00913,0.02071
1784518679.433544,-0.04982,0.00841,-0.99912,0.0033,0.00835,0.01282
1784518679.6477942,-0.035,0.00649,-0.99631,0.00697,0.00464,0.00464
1784518679.6477942,-0.01546,0.12552,-0.99545,0.01308,0.00569,0.39127
1784518679.8562272,0.00399,-0.04228,-0.99541,-8e-05,0.0165,0.51536
1784518679.858988,-0.01049,-0.02652,-0.98438,0.03407,0.02105,0.44324
1784518679.9526222,-0.01809,0.02566,-0.99955,0.01283,0.00093,0.50062
1784518680.0624714,-0.02477,0.04147,-0.99955,0.00956,0.00154,0.52156
1784518680.2641587,-0.02076,0.00594,-1.00213,0.00781,-0.0174,0.49209
1784518680.4720345,0.00679,-0.02664,-1.01256,-0.00183,-0.00524,0.45334
1784518680.673351,-0.03361,0.06223,-0.99559,0.00094,-0.06781,0.58663
1784518680.673351,-0.01297,-0.06494,-0.99267,0.02111,-0.00843,0.58879
1784518680.6945553,0.02587,0.0228,-0.99659,0.01033,-0.00689,0.43006
1784518680.868961,-0.02003,0.02585,-0.98293,0.03948,0.01728,0.47621
1784518680.8847563,-0.03943,0.04506,-0.99197,-0.01922,-0.05027,0.6405
1784518681.087767,-0.01765,0.0045,-0.99985,0.00045,-0.00746,0.50124
1784518681.087767,-0.01059,-0.04593,-1.00433,0.0229,-0.01668,0.56868
1784518681.2914414,-0.0127,-0.01042,-1.00429,0.00073,0.00434,0.53676
1784518681.2955987,-0.02465,0.00672,-0.99881,0.00767,-0.00042,0.52991
1784518681.4944475,0.00137,0.01819,-1.00517,-0.02097,0.005,0.49423
1784518681.7010608,-0.01632,-0.02805,-0.99484,0.02376,0.00603,0.53078
1784518681.716822,-0.02922,0.03798,-0.9988,-0.00165,-0.00175,0.56938
1784518681.90769,-0.00742,0.02039,-0.9971,0.0163,-0.00179,0.48332
1784518681.9158325,0.00111,-0.00976,-1.00276,0.02044,-0.00958,0.51588
1784518682.107963,0.01829,0.00915,-0.99129,-0.00255,9e-05,0.50419
1784518682.1191459,-0.01209,0.02646,-0.99228,0.00799,-0.00511,0.45333
1784518682.310318,-0.00713,0.01488,-1.00261,0.00892,0.00444,0.47855
1784518682.5093458,0.01417,-0.00284,-1.00007,0.02342,0.00514,0.53606
1784518682.7252889,-0.00064,0.11958,-1.0004,-0.0109,-0.02007,0.01947
1784518682.7318301,0.23235,0.03238,-1.00478,0.01738,0.07088,0.05063
1784518682.9285953,0.12321,-0.01202,-1.01619,0.03186,-0.03955,0.00027
1784518683.0032449,0.11892,-0.00118,-1.00435,0.03617,-0.03282,-0.00804
1784518683.1313217,-0.12413,0.01363,-0.98243,-0.05586,-0.0082,0.01993
1784518683.339266,0.10658,0.00174,-1.08441,-0.0098,0.03587,-0.00286
1784518683.5404146,-0.26019,0.00026,-1.00572,0.05071,-0.02775,0.01741
1784518683.7495215,-0.22987,0.01606,-0.96551,0.01173,0.013,0.00055
1784518683.9494138,-0.18308,0.0007,-0.98879,0.02067,0.01831,0.03152
1784518684.1589987,0.1647,-0.00017,-1.01988,0.00392,-0.01358,0.00884
1784518684.3643506,-0.02981,0.0243,-0.99102,-0.00485,0.00333,0.01483
1784518684.366352,-0.0284,0.00175,-1.00238,-0.02262,-0.00313,0.00484
1784518684.5659184,-0.03554,0.00945,-0.99358,0.01112,0.00406,-0.01366
1784518684.7711241,-0.02811,0.00462,-1.00962,-0.00284,-0.00142,0.00431
1784518684.977706,-0.02979,0.01168,-0.99818,-0.00469,0.00506,0.01312
1784518684.977706,-0.03382,0.01281,-0.98838,0.01939,0.01449,-0.00087
1784518685.1911418,-0.03572,0.0156,-1.00177,0.00636,-0.00181,0.00373
1784518685.383747,-0.02194,0.00653,-0.99374,-0.00701,0.00116,0.03749
1784518685.383747,-0.05422,0.06218,-1.00043,0.01949,-0.0101,0.38716
1784518685.5924673,-0.0058,0.03107,-1.00552,-0.00132,-0.01055,0.46672
1784518685.595557,0.00405,-0.03593,-1.00193,0.01497,0.01396,0.51967
1784518685.7974176,0.00934,0.02346,-0.99966,0.01919,-0.00648,0.46619
1784518685.7974176,-0.02699,0.00448,-0.9976,0.00654,0.00302,0.53125
1784518685.9990728,-0.01537,0.01525,-0.98962,0.03177,0.01494,0.54354
1784518686.2066154,0.00366,-0.00171,-1.00975,-0.00859,-0.00322,0.48714
1784518686.4087374,-0.00483,0.03318,-0.9979,0.00553,-0.0056,0.52106
1784518686.6076152,-0.01195,-0.05328,-0.99779,0.0017,0.01005,0.54094
1784518686.8218136,-0.01139,-0.00583,-0.99586,0.00989,-0.00654,0.54324
1784518686.8900914,-0.02086,0.0084,-0.99233,0.01434,0.00725,0.52521
1784518687.0328035,-0.02295,0.02532,-0.99226,0.004,0.00523,0.5445
1784518687.2271073,-0.01352,-0.03885,-0.99593,0.00831,-0.00265,0.52519
1784518687.2271073,0.01621,0.0055,-0.99716,0.01234,-0.00354,0.52266
1784518687.4273865,-0.00765,0.02745,-0.99503,0.01253,0.00192,0.55094
1784518687.6351774,-0.004,-0.01363,-1.00248,0.00032,-0.00424,0.49422
1784518687.8424034,-0.00376,0.03116,-0.99674,0.01166,-0.02051,0.52829
1784518688.0171402,-0.0079,0.01756,-0.99632,0.01565,-0.01265,0.52193
1784518688.2421746,-0.01761,0.02315,-1.00891,-0.00029,-0.00882,0.52233
1784518688.4534395,-0.01674,0.00341,-0.99993,0.00781,0.00577,-0.01195
1784518688.665152,-0.00961,0.0042,-1.00105,0.00397,0.00412,0.00943
1784518688.665152,0.22403,0.00276,-0.99804,0.04472,0.06612,-0.01759
1784518688.8697882,0.16354,-0.01048,-0.98372,0.0112,0.00283,0.07394
1784518688.8707752,0.16028,0.01771,-0.99363,0.00021,0.01497,-0.0136
1784518689.0332255,0.16162,0.00189,-0.98007,-0.02876,0.03426,0.02731
1784518689.0407255,-0.12911,0.00086,-1.00906,-0.00379,-0.0688,0.01474
1784518689.2829967,-0.14027,0.01039,-1.00651,-0.08576,-0.00937,0.03455
1784518689.4843516,0.07604,-0.01658,-0.99396,0.01557,0.01353,0.00629
1784518689.6926167,-0.00886,-0.02267,-0.97866,0.00274,0.04415,0.05417
1784518689.8961158,-0.00974,0.06078,-0.96482,0.01204,-0.03122,-0.03252
1784518689.8961158,-0.11028,0.08095,-0.99111,0.00392,0.00145,-0.07179
1784518690.0208828,0.12612,0.00937,-1.00924,-0.00723,-0.012,0.04021
1784518690.0850978,-0.02935,0.00673,-0.99703,0.0219,0.00317,0.02834
1784518690.2961864,-0.03384,0.01243,-0.99993,0.01651,0.00028,0.0058
1784518690.2961864,-0.03418,0.01983,-0.99913,-0.00413,0.0009,0.00762
1784518690.507657,-0.02979,0.02,-0.99862,0.01009,-0.00713,-0.00575
1784518690.708573,-0.03001,0.02554,-0.99706,0.0057,0.00244,-0.00465
1784518690.708573,-0.03343,0.01035,-0.99495,0.01128,-0.00693,0.00416
1784518690.9049742,-0.03493,0.00146,-0.99646,-0.00504,-0.00148,0.00785
1784518691.1318262,-0.03157,0.01329,-0.99854,0.0013,-0.00132,0.00112
1784518691.1318262,-0.02359,0.0194,-0.99723,0.00794,0.00481,-0.00519
1784518691.3209453,-0.02691,0.00768,-0.99814,0.00849,0.00129,0.00562
1784518691.3209453,-0.01702,0.04076,-0.99467,0.01503,-0.00178,0.46304
1784518691.5333624,-0.0185,0.00562,-0.99866,0.01185,0.00678,0.46528
1784518691.7340426,0.00698,0.01975,-1.00071,0.01586,9e-05,0.45178
1784518691.7340426,-0.01003,0.01172,-0.99902,0.00828,0.00392,0.55748
1784518691.9359708,-0.03051,-0.0017,-0.9913,0.01268,-3e-05,0.51367
1784518691.9424286,-0.0278,-0.05135,-0.99763,0.01116,0.00085,0.53788
1784518692.046784,-0.0001,0.01443,-0.99564,0.0077,0.00573,0.50628
1784518692.1582427,-0.01139,0.01817,-0.99946,0.0193,-0.01505,0.50362
1784518692.3459098,-0.01908,-0.00182,-0.99527,-0.00216,0.01125,0.56027
1784518692.3536615,-0.0251,0.02927,-1.00146,0.00079,0.00143,0.51252
1784518692.546344,-0.01545,-0.02534,-0.99638,0.00568,0.00902,0.53484
1784518692.5615854,0.02486,-0.00389,-0.99589,-0.02002,0.01559,0.51513
1784518692.7586741,-0.00613,0.02254,-1.00623,0.00438,-0.00018,0.5266
1784518692.9630322,-0.02237,-0.00052,-0.98476,0.02662,0.01039,0.58416
1784518693.0565047,0.01619,0.00847,-1.00135,-0.00216,0.00492,0.46419
1784518693.1697836,-0.04348,0.04705,-1.00414,-0.00225,-0.00434,0.49367
1784518693.3724809,0.00511,0.00281,-0.99392,0.02219,0.0122,0.55006
1784518693.5788207,-0.01292,-0.04792,-0.99702,-0.00014,-0.02502,0.6022
1784518693.5805066,-0.02317,0.00827,-0.99477,0.00838,-0.00059,0.52091
1784518693.7835972,-0.03204,0.02357,-1.01549,-0.00179,-0.01295,0.47666
1784518693.7835972,0.01562,0.03713,-1.00085,-0.00063,0.00753,0.53016
1784518693.9864912,-0.00192,0.00392,-0.99303,0.02308,-0.0101,0.56513
1784518693.9864912,-0.02904,-0.04081,-0.99921,-0.00587,-0.00729,0.52526
1784518694.1933098,-0.01116,0.03394,-0.99562,-0.0007,0.00692,0.51223
1784518694.3895233,0.03984,0.07122,-0.99822,-0.00742,-0.01007,0.40347
1784518694.3895233,0.00027,0.04042,-0.99478,0.00963,0.0052,-0.03407
1784518694.6042683,-0.01649,0.01527,-0.99948,0.00515,0.00622,0.00435
1784518694.6068134,-0.01796,0.00799,-0.99875,0.00333,0.00313,0.00234
1784518694.8067677,-0.01593,0.01017,-0.99718,0.00547,0.0041,0.00664
1784518694.8067677,-0.01146,0.01188,-0.99805,0.00094,0.00319,0.00679
1784518694.9178615,-0.00848,0.01215,-0.99716,0.00416,0.00404,0.00495
